trials.thisRepN,trials.thisTrialN,trials.thisN,trials.thisIndex,trials_2.thisRepN,trials_2.thisTrialN,trials_2.thisN,trials_2.thisIndex,text.started,key_resp.started,key_resp.keys,key_resp.rt,Cross.started,text_3.started,ModulatedTone.started,text_3.stopped,text_2.started,ModulatedTone.stopped,text_4.started,key_resp_2.started,participant,session,date,expName,psychopyVersion,frameRate,
,,,,,,,,31.120610199999646,31.120610199999646,space,76.41477730000042,,,,,,,,,460762,001,2023-10-12_13h27.02.406,ASSR3,2022.2.5,None,
0,0,0,0,0,0,0,0,,,,,107.57369709999966,107.57369709999966,109.55337236666607,109.56986169999982,,,,,460762,001,2023-10-12_13h27.02.406,ASSR3,2022.2.5,None,
0,0,0,0,1,0,1,0,,,,,114.58374169999934,114.58374169999934,116.54977566666663,116.59859479999977,,,,,460762,001,2023-10-12_13h27.02.406,ASSR3,2022.2.5,None,
0,0,0,0,2,0,2,0,,,,,121.59404229999927,121.59404229999927,123.55998516666592,123.60870459999933,,,,,460762,001,2023-10-12_13h27.02.406,ASSR3,2022.2.5,None,
0,0,0,0,3,0,3,0,,,,,128.6040893999998,128.6040893999998,130.55213096666674,130.61857509999936,,,,,460762,001,2023-10-12_13h27.02.406,ASSR3,2022.2.5,None,
0,0,0,0,4,0,4,0,,,,,135.58148110000002,135.58148110000002,137.54556916666596,137.59569519999968,,,,,460762,001,2023-10-12_13h27.02.406,ASSR3,2022.2.5,None,
0,0,0,0,5,0,5,0,,,,,142.58804280000004,142.58804280000004,144.5547211666665,144.58681949999936,,,,,460762,001,2023-10-12_13h27.02.406,ASSR3,2022.2.5,None,
0,0,0,0,6,0,6,0,,,,,149.59783679999964,149.59783679999964,151.54758666666592,151.59768039999926,,,,,460762,001,2023-10-12_13h27.02.406,ASSR3,2022.2.5,None,
0,0,0,0,7,0,7,0,,,,,156.5748838999998,156.5748838999998,158.5440847666662,158.57408320000013,,,,,460762,001,2023-10-12_13h27.02.406,ASSR3,2022.2.5,None,
0,0,0,0,8,0,8,0,,,,,163.5724534000001,163.5724534000001,165.55124636666667,165.58774339999945,,,,,460762,001,2023-10-12_13h27.02.406,ASSR3,2022.2.5,None,
0,0,0,0,9,0,9,0,,,,,170.58055650000006,170.58055650000006,172.54413786666672,172.5933371000001,,,,,460762,001,2023-10-12_13h27.02.406,ASSR3,2022.2.5,None,
0,0,0,0,,,,,,,,,,,,,177.57317599999988,,,,460762,001,2023-10-12_13h27.02.406,ASSR3,2022.2.5,None,
1,0,1,0,0,0,0,0,,,,,182.5847844,182.5847844,184.54971486666662,184.58504670000002,,,,,460762,001,2023-10-12_13h27.02.406,ASSR3,2022.2.5,None,
1,0,1,0,1,0,1,0,,,,,189.57967329999974,189.57967329999974,191.54730236666663,191.57633759999953,,,,,460762,001,2023-10-12_13h27.02.406,ASSR3,2022.2.5,None,
1,0,1,0,2,0,2,0,,,,,196.5716814999996,196.5716814999996,198.55338256666644,198.5711849999998,,,,,460762,001,2023-10-12_13h27.02.406,ASSR3,2022.2.5,None,
1,0,1,0,3,0,3,0,,,,,203.58497679999982,203.58497679999982,205.54875516666678,205.59682780000003,,,,,460762,001,2023-10-12_13h27.02.406,ASSR3,2022.2.5,None,
1,0,1,0,4,0,4,0,,,,,210.59410949999983,210.59410949999983,212.5585325666664,212.5916045999993,,,,,460762,001,2023-10-12_13h27.02.406,ASSR3,2022.2.5,None,
1,0,1,0,5,0,5,0,,,,,217.60842709999997,217.60842709999997,219.5504841666664,219.61869669999942,,,,,460762,001,2023-10-12_13h27.02.406,ASSR3,2022.2.5,None,
1,0,1,0,6,0,6,0,,,,,224.57834120000007,224.57834120000007,226.54625966666597,226.59280039999976,,,,,460762,001,2023-10-12_13h27.02.406,ASSR3,2022.2.5,None,
1,0,1,0,7,0,7,0,,,,,231.59237719999965,231.59237719999965,233.5543895666663,233.60352909999983,,,,,460762,001,2023-10-12_13h27.02.406,ASSR3,2022.2.5,None,
1,0,1,0,8,0,8,0,,,,,238.6055527999997,238.6055527999997,240.5485843666668,240.61663079999926,,,,,460762,001,2023-10-12_13h27.02.406,ASSR3,2022.2.5,None,
1,0,1,0,9,0,9,0,,,,,245.57475369999975,245.57475369999975,247.54300636666656,247.57439149999936,,,,,460762,001,2023-10-12_13h27.02.406,ASSR3,2022.2.5,None,
1,0,1,0,,,,,,,,,,,,,252.56898739999997,,,,460762,001,2023-10-12_13h27.02.406,ASSR3,2022.2.5,None,
2,0,2,0,0,0,0,0,,,,,257.5672102999997,257.5672102999997,259.5461690666664,259.5834082000001,,,,,460762,001,2023-10-12_13h27.02.406,ASSR3,2022.2.5,None,
2,0,2,0,1,0,1,0,,,,,264.5760184999999,264.5760184999999,266.5570933666661,266.57527260000006,,,,,460762,001,2023-10-12_13h27.02.406,ASSR3,2022.2.5,None,
2,0,2,0,2,0,2,0,,,,,271.5838568999998,271.5838568999998,273.55259366666655,273.58295,,,,,460762,001,2023-10-12_13h27.02.406,ASSR3,2022.2.5,None,
2,0,2,0,3,0,3,0,,,,,278.5838722999997,278.5838722999997,280.543329866666,280.5950275999994,,,,,460762,001,2023-10-12_13h27.02.406,ASSR3,2022.2.5,None,
2,0,2,0,4,0,4,0,,,,,285.57486659999995,285.57486659999995,287.5567342666666,287.58658919999925,,,,,460762,001,2023-10-12_13h27.02.406,ASSR3,2022.2.5,None,
2,0,2,0,5,0,5,0,,,,,292.58042639999985,292.58042639999985,294.54919646666644,294.5800217999995,,,,,460762,001,2023-10-12_13h27.02.406,ASSR3,2022.2.5,None,
2,0,2,0,6,0,6,0,,,,,299.59150539999973,299.59150539999973,301.5422967666666,301.5933989999994,,,,,460762,001,2023-10-12_13h27.02.406,ASSR3,2022.2.5,None,
2,0,2,0,7,0,7,0,,,,,306.5707720999999,306.5707720999999,308.5524995666667,308.58456579999984,,,,,460762,001,2023-10-12_13h27.02.406,ASSR3,2022.2.5,None,
2,0,2,0,8,0,8,0,,,,,313.5822589999998,313.5822589999998,315.54600286666596,315.5940379999993,,,,,460762,001,2023-10-12_13h27.02.406,ASSR3,2022.2.5,None,
2,0,2,0,9,0,9,0,,,,,320.5891894999995,320.5891894999995,322.55420116666596,322.58711629999925,,,,,460762,001,2023-10-12_13h27.02.406,ASSR3,2022.2.5,None,
2,0,2,0,,,,,,,,,,,,,327.58176789999925,,,,460762,001,2023-10-12_13h27.02.406,ASSR3,2022.2.5,None,
3,0,3,0,0,0,0,0,,,,,332.5768976999998,332.5768976999998,334.54290056666673,334.5763471,,,,,460762,001,2023-10-12_13h27.02.406,ASSR3,2022.2.5,None,
3,0,3,0,1,0,1,0,,,,,339.58690149999984,339.58690149999984,341.55262546666677,341.6024245999997,,,,,460762,001,2023-10-12_13h27.02.406,ASSR3,2022.2.5,None,
3,0,3,0,2,0,2,0,,,,,346.58124249999946,346.58124249999946,348.54701366666654,348.5962931999993,,,,,460762,001,2023-10-12_13h27.02.406,ASSR3,2022.2.5,None,
3,0,3,0,3,0,3,0,,,,,353.5946697999998,353.5946697999998,355.56085946666667,355.6075216999998,,,,,460762,001,2023-10-12_13h27.02.406,ASSR3,2022.2.5,None,
3,0,3,0,4,0,4,0,,,,,360.5853516999996,360.5853516999996,362.5499556666666,362.585384,,,,,460762,001,2023-10-12_13h27.02.406,ASSR3,2022.2.5,None,
3,0,3,0,5,0,5,0,,,,,367.5797470999996,367.5797470999996,369.5457950666662,369.59385139999995,,,,,460762,001,2023-10-12_13h27.02.406,ASSR3,2022.2.5,None,
3,0,3,0,6,0,6,0,,,,,374.58835159999944,374.58835159999944,376.5536387666664,376.60373079999954,,,,,460762,001,2023-10-12_13h27.02.406,ASSR3,2022.2.5,None,
3,0,3,0,7,0,7,0,,,,,381.5850617999995,381.5850617999995,383.54687016666617,383.5976348999993,,388.5601250999998,,,460762,001,2023-10-12_13h27.02.406,ASSR3,2022.2.5,None,
3,0,3,0,8,0,8,0,,,,,388.59230690000004,388.59230690000004,390.560695266666,390.59187569999995,,,,,460762,001,2023-10-12_13h27.02.406,ASSR3,2022.2.5,None,
3,0,3,0,9,0,9,0,,,,,395.5842365999997,395.5842365999997,397.5525671666667,397.5841051999996,,,,,460762,001,2023-10-12_13h27.02.406,ASSR3,2022.2.5,None,
3,0,3,0,,,,,,,,,,,,,402.5798077999998,,,,460762,001,2023-10-12_13h27.02.406,ASSR3,2022.2.5,None,
4,0,4,0,0,0,0,0,,,,,407.57468569999946,407.57468569999946,409.55797536666637,409.5751188999993,,,,,460762,001,2023-10-12_13h27.02.406,ASSR3,2022.2.5,None,
4,0,4,0,1,0,1,0,,,,,414.5849180999994,414.5849180999994,416.5515735666661,416.5824795999997,,,,,460762,001,2023-10-12_13h27.02.406,ASSR3,2022.2.5,None,
4,0,4,0,2,0,2,0,,,,,421.597495,421.597495,423.54516376666675,423.6092046999993,,,,,460762,001,2023-10-12_13h27.02.406,ASSR3,2022.2.5,None,
4,0,4,0,3,0,3,0,,,,,428.57390750000013,428.57390750000013,430.55577606666634,430.5862989999996,,,,,460762,001,2023-10-12_13h27.02.406,ASSR3,2022.2.5,None,
4,0,4,0,4,0,4,0,,,,,435.5821143999992,435.5821143999992,437.54751106666595,437.5956581999999,,,,,460762,001,2023-10-12_13h27.02.406,ASSR3,2022.2.5,None,
4,0,4,0,5,0,5,0,,,,,442.59211400000004,442.59211400000004,444.5588649666663,444.5898228999995,,,,,460762,001,2023-10-12_13h27.02.406,ASSR3,2022.2.5,None,
4,0,4,0,6,0,6,0,,,,,449.60225249999985,449.60225249999985,451.55040506666614,451.6010966999993,,,,,460762,001,2023-10-12_13h27.02.406,ASSR3,2022.2.5,None,
4,0,4,0,7,0,7,0,,,,,456.5815423999993,456.5815423999993,458.5446713666663,458.5934532000001,,,,,460762,001,2023-10-12_13h27.02.406,ASSR3,2022.2.5,None,
4,0,4,0,8,0,8,0,,,,,463.60708160000013,463.60708160000013,465.55744096666626,465.6209001999996,,,,,460762,001,2023-10-12_13h27.02.406,ASSR3,2022.2.5,None,
4,0,4,0,9,0,9,0,,,,,470.58104659999935,470.58104659999935,472.5475002666665,472.5827240999997,,,,,460762,001,2023-10-12_13h27.02.406,ASSR3,2022.2.5,None,
4,0,4,0,,,,,,,,,,,,,477.57658059999994,,,,460762,001,2023-10-12_13h27.02.406,ASSR3,2022.2.5,None,
,,,,,,,,,,,,,,,,,,482.5749384999999,482.5749384999999,,,,,,,
