trials.thisRepN,trials.thisTrialN,trials.thisN,trials.thisIndex,trials_2.thisRepN,trials_2.thisTrialN,trials_2.thisN,trials_2.thisIndex,text.started,key_resp.started,key_resp.keys,key_resp.rt,Cross.started,text_3.started,ModulatedTone.started,text_3.stopped,key_resp_3.started,text_2.started,key_resp_3.keys,key_resp_3.rt,text_4.started,key_resp_2.started,key_resp_2.keys,key_resp_2.rt,participant,session,date,expName,psychopyVersion,frameRate,
,,,,,,,,20.88016570000036,20.88016570000036,space,11.758718400007638,,,,,,,,,,,,,elpida,test1,2023-10-11_14h26.03.192,ASSR2,2022.2.5,60.09694839726772,
0,0,0,0,0,0,0,0,,,,,32.67571139999927,32.67571139999927,35.14494456999746,35.176775299994915,,,,,,,,,elpida,test1,2023-10-11_14h26.03.192,ASSR2,2022.2.5,60.09694839726772,
0,0,0,0,1,0,1,0,,,,,45.1766484999971,45.1766484999971,47.659671269996764,47.67589700000099,,,,,,,,,elpida,test1,2023-10-11_14h26.03.192,ASSR2,2022.2.5,60.09694839726772,
0,0,0,0,2,0,2,0,,,,,57.67594829999871,57.67594829999871,60.16046577000016,60.17568290000054,,,,,,,,,elpida,test1,2023-10-11_14h26.03.192,ASSR2,2022.2.5,60.09694839726772,
0,0,0,0,3,0,3,0,,,,,70.17571379999572,70.17571379999572,72.65869176999622,72.67501269999775,,,,,,,,,elpida,test1,2023-10-11_14h26.03.192,ASSR2,2022.2.5,60.09694839726772,
0,0,0,0,4,0,4,0,,,,,82.69025590000092,82.69025590000092,85.1571105699979,85.19086999999854,,,,,,,,,elpida,test1,2023-10-11_14h26.03.192,ASSR2,2022.2.5,60.09694839726772,
0,0,0,0,5,0,5,0,,,,,95.17370889999438,95.17370889999438,97.65675996999853,97.67494949999673,,,,,,,,,elpida,test1,2023-10-11_14h26.03.192,ASSR2,2022.2.5,60.09694839726772,
0,0,0,0,6,0,6,0,,,,,107.68850479999674,107.68850479999674,110.15534327000132,110.18897509999806,,,,,,,,,elpida,test1,2023-10-11_14h26.03.192,ASSR2,2022.2.5,60.09694839726772,
0,0,0,0,7,0,7,0,,,,,120.17275819999486,120.17275819999486,122.65534736999616,122.67203509999672,,,,,,,,,elpida,test1,2023-10-11_14h26.03.192,ASSR2,2022.2.5,60.09694839726772,
0,0,0,0,8,0,8,0,,,,,132.6717256999982,132.6717256999982,135.15531536999987,135.17153549999784,,,,,,,,,elpida,test1,2023-10-11_14h26.03.192,ASSR2,2022.2.5,60.09694839726772,
0,0,0,0,9,0,9,0,,,,,145.17122099999688,145.17122099999688,147.65391036999716,147.67225429999962,,,,,,,,,elpida,test1,2023-10-11_14h26.03.192,ASSR2,2022.2.5,60.09694839726772,
0,0,0,0,,,,,,,,,,,,,157.67019419999997,157.67019419999997,space,11.980002200005401,,,,,elpida,test1,2023-10-11_14h26.03.192,ASSR2,2022.2.5,60.09694839726772,
1,0,1,0,0,0,0,0,,,,,169.6848944999947,169.6848944999947,172.1692999699946,172.18553709999833,,,,,,,,,elpida,test1,2023-10-11_14h26.03.192,ASSR2,2022.2.5,60.09694839726772,
1,0,1,0,1,0,1,0,,,,,182.20131250000122,182.20131250000122,184.6689544699977,184.702535299999,,,,,,,,,elpida,test1,2023-10-11_14h26.03.192,ASSR2,2022.2.5,60.09694839726772,
1,0,1,0,2,0,2,0,,,,,194.6848858000012,194.6848858000012,197.1683275699972,197.18472459999612,,,,,,,,,elpida,test1,2023-10-11_14h26.03.192,ASSR2,2022.2.5,60.09694839726772,
1,0,1,0,3,0,3,0,,,,,207.18419749999885,207.18419749999885,209.6673040699963,209.6840921999974,,,,,,,,,elpida,test1,2023-10-11_14h26.03.192,ASSR2,2022.2.5,60.09694839726772,
1,0,1,0,4,0,4,0,,,,,219.68331549999857,219.68331549999857,222.16684987000116,222.18340579999494,,,,,,,,,elpida,test1,2023-10-11_14h26.03.192,ASSR2,2022.2.5,60.09694839726772,
1,0,1,0,5,0,5,0,,,,,232.1826221999945,232.1826221999945,234.66613176999743,234.68260369999916,,,,,,,,,elpida,test1,2023-10-11_14h26.03.192,ASSR2,2022.2.5,60.09694839726772,
1,0,1,0,6,0,6,0,,,,,244.6825147999989,244.6825147999989,247.16517757000037,247.18206519999512,,,,,,,,,elpida,test1,2023-10-11_14h26.03.192,ASSR2,2022.2.5,60.09694839726772,
1,0,1,0,7,0,7,0,,,,,257.18156610000005,257.18156610000005,259.6648767699946,259.68127359999926,,,,,,,,,elpida,test1,2023-10-11_14h26.03.192,ASSR2,2022.2.5,60.09694839726772,
1,0,1,0,8,0,8,0,,,,,269.6805707999956,269.6805707999956,272.16437566999883,272.18062479999935,,,,,,,,,elpida,test1,2023-10-11_14h26.03.192,ASSR2,2022.2.5,60.09694839726772,
1,0,1,0,9,0,9,0,,,,,282.1802716999955,282.1802716999955,284.6637829699968,284.6802008999948,,,,,,,,,elpida,test1,2023-10-11_14h26.03.192,ASSR2,2022.2.5,60.09694839726772,
1,0,1,0,,,,,,,,,,,,,294.67988630000036,294.67988630000036,space,9.677714900004503,,,,,elpida,test1,2023-10-11_14h26.03.192,ASSR2,2022.2.5,60.09694839726772,
2,0,2,0,0,0,0,0,,,,,304.3945873999983,304.3945873999983,306.8798494699942,306.8958519000007,,,,,,,,,elpida,test1,2023-10-11_14h26.03.192,ASSR2,2022.2.5,60.09694839726772,
2,0,2,0,1,0,1,0,,,,,316.8949213999949,316.8949213999949,319.3783452700001,319.3948925000004,,,,,,,,,elpida,test1,2023-10-11_14h26.03.192,ASSR2,2022.2.5,60.09694839726772,
2,0,2,0,2,0,2,0,,,,,329.39400079999905,329.39400079999905,331.8775972699943,331.89438119999977,,,,,,,,,elpida,test1,2023-10-11_14h26.03.192,ASSR2,2022.2.5,60.09694839726772,
2,0,2,0,3,0,3,0,,,,,341.89361509999435,341.89361509999435,344.37699376999734,344.3933595999988,,,,,,,,,elpida,test1,2023-10-11_14h26.03.192,ASSR2,2022.2.5,60.09694839726772,
2,0,2,0,4,0,4,0,,,,,354.39278419999755,354.39278419999755,356.87658437000135,356.89470040000015,,,,,,,,,elpida,test1,2023-10-11_14h26.03.192,ASSR2,2022.2.5,60.09694839726772,
2,0,2,0,5,0,5,0,,,,,366.89206120000017,366.89206120000017,369.3772685699943,369.39212479999696,,,,,,,,,elpida,test1,2023-10-11_14h26.03.192,ASSR2,2022.2.5,60.09694839726772,
2,0,2,0,6,0,6,0,,,,,379.39135809999425,379.39135809999425,381.8746084699953,381.8915249999991,,,,,,,,,elpida,test1,2023-10-11_14h26.03.192,ASSR2,2022.2.5,60.09694839726772,
2,0,2,0,7,0,7,0,,,,,391.8906266999984,391.8906266999984,394.3736062699965,394.39071169999806,,,,,,,,,elpida,test1,2023-10-11_14h26.03.192,ASSR2,2022.2.5,60.09694839726772,
2,0,2,0,8,0,8,0,,,,,404.39026999999624,404.39026999999624,406.8730587699967,406.8894169999985,,,,,,,,,elpida,test1,2023-10-11_14h26.03.192,ASSR2,2022.2.5,60.09694839726772,
2,0,2,0,9,0,9,0,,,,,416.8893781000006,416.8893781000006,419.3729783699957,419.3901259999984,,,,,,,,,elpida,test1,2023-10-11_14h26.03.192,ASSR2,2022.2.5,60.09694839726772,
2,0,2,0,,,,,,,,,,,,,429.3894813000006,429.3894813000006,space,25.18292040000233,,,,,elpida,test1,2023-10-11_14h26.03.192,ASSR2,2022.2.5,60.09694839726772,
3,0,3,0,0,0,0,0,,,,,454.61988039999414,454.61988039999414,457.104468769997,457.12213340000017,,,,,,,,,elpida,test1,2023-10-11_14h26.03.192,ASSR2,2022.2.5,60.09694839726772,
3,0,3,0,1,0,1,0,,,,,467.1359039999952,467.1359039999952,469.603082969995,469.6359727999952,,,,,,,,,elpida,test1,2023-10-11_14h26.03.192,ASSR2,2022.2.5,60.09694839726772,
3,0,3,0,2,0,2,0,,,,,479.635134199998,479.635134199998,482.102759569999,482.13602239999454,,,,,,,,,elpida,test1,2023-10-11_14h26.03.192,ASSR2,2022.2.5,60.09694839726772,
3,0,3,0,3,0,3,0,,,,,492.1186052999983,492.1186052999983,494.6032464699958,494.6180867000003,,,,,,,,,elpida,test1,2023-10-11_14h26.03.192,ASSR2,2022.2.5,60.09694839726772,
3,0,3,0,4,0,4,0,,,,,504.6184432000009,504.6184432000009,507.1017622700012,507.11828469999455,,,,,,,,,elpida,test1,2023-10-11_14h26.03.192,ASSR2,2022.2.5,60.09694839726772,
3,0,3,0,5,0,5,0,,,,,517.117172899998,517.117172899998,519.6007650699969,519.6171876999942,,,,,,,,,elpida,test1,2023-10-11_14h26.03.192,ASSR2,2022.2.5,60.09694839726772,
3,0,3,0,6,0,6,0,,,,,529.6169971999989,529.6169971999989,532.0998515699969,532.1326450999986,,,,,,,,,elpida,test1,2023-10-11_14h26.03.192,ASSR2,2022.2.5,60.09694839726772,
3,0,3,0,7,0,7,0,,,,,542.1155665999977,542.1155665999977,544.5995511700014,544.615965799996,,,,,,,,,elpida,test1,2023-10-11_14h26.03.192,ASSR2,2022.2.5,60.09694839726772,
3,0,3,0,8,0,8,0,,,,,554.6151682999989,554.6151682999989,557.0988756699946,557.1157445999997,,,,,,,,,elpida,test1,2023-10-11_14h26.03.192,ASSR2,2022.2.5,60.09694839726772,
3,0,3,0,9,0,9,0,,,,,567.114759600001,567.114759600001,569.5977311699965,569.614496999995,,,,,,,,,elpida,test1,2023-10-11_14h26.03.192,ASSR2,2022.2.5,60.09694839726772,
3,0,3,0,,,,,,,,,,,,,579.6152646999981,579.6152646999981,space,2.4485879999992903,,,,,elpida,test1,2023-10-11_14h26.03.192,ASSR2,2022.2.5,60.09694839726772,
,,,,,,,,,,,,,,,,,,,,582.2679829999979,582.2679829999979,space,13.224550600003568,elpida,test1,2023-10-11_14h26.03.192,ASSR2,2022.2.5,60.09694839726772,
