trials.thisRepN,trials.thisTrialN,trials.thisN,trials.thisIndex,trials_2.thisRepN,trials_2.thisTrialN,trials_2.thisN,trials_2.thisIndex,text.started,key_resp.started,key_resp.keys,key_resp.rt,Cross.started,text_3.started,ModulatedTone.started,text_3.stopped,ModulatedTone.stopped,key_resp_3.started,text_2.started,key_resp_3.keys,key_resp_3.rt,text_4.started,key_resp_2.started,key_resp_2.keys,key_resp_2.rt,participant,session,date,expName,psychopyVersion,frameRate,
,,,,,,,,24.30226260004565,24.30226260004565,space,6.945289599942043,,,,,,,,,,,,,,Levi,002,2023-10-10_15h47.00.916,ASSR3,2022.2.5,60.86934817740039,
0,0,0,0,0,0,0,0,,,,,31.356020299950615,31.356020299950615,33.270395009941424,33.3703793999739,,,,,,,,,,Levi,002,2023-10-10_15h47.00.916,ASSR3,2022.2.5,60.86934817740039,
0,0,0,0,1,0,1,0,,,,,38.382603199919686,38.382603199919686,40.26418720993679,40.39691859995946,,,,,,,,,,Levi,002,2023-10-10_15h47.00.916,ASSR3,2022.2.5,60.86934817740039,
0,0,0,0,2,0,2,0,,,,,45.39219480007887,45.39219480007887,47.25769650998991,47.3914854999166,52.28508449997753,,,,,,,,,Levi,002,2023-10-10_15h47.00.916,ASSR3,2022.2.5,60.86934817740039,
0,0,0,0,3,0,3,0,,,,,52.40263359993696,52.40263359993696,54.26781710998621,54.41897129989229,,,,,,,,,,Levi,002,2023-10-10_15h47.00.916,ASSR3,2022.2.5,60.86934817740039,
0,0,0,0,4,0,4,0,,,,,59.3786660998594,59.3786660998594,61.26075580988545,61.3781896000728,,,,,,,,,,Levi,002,2023-10-10_15h47.00.916,ASSR3,2022.2.5,60.86934817740039,
0,0,0,0,5,0,5,0,,,,,66.37244339985773,66.37244339985773,68.27082191004884,68.37082609999925,,,,,,,,,,Levi,002,2023-10-10_15h47.00.916,ASSR3,2022.2.5,60.86934817740039,
0,0,0,0,6,0,6,0,,,,,73.36864920007065,73.36864920007065,75.26483460997697,75.38086410006508,,,,,,,,,,Levi,002,2023-10-10_15h47.00.916,ASSR3,2022.2.5,60.86934817740039,
0,0,0,0,7,0,7,0,,,,,80.37685330002569,80.37685330002569,82.25873660987709,82.39244109997526,87.28578529995866,,,,,,,,,Levi,002,2023-10-10_15h47.00.916,ASSR3,2022.2.5,60.86934817740039,
0,0,0,0,8,0,8,0,,,,,87.36943540000357,87.36943540000357,89.27004770997446,89.38415649998933,,,,,,,,,,Levi,002,2023-10-10_15h47.00.916,ASSR3,2022.2.5,60.86934817740039,
0,0,0,0,9,0,9,0,,,,,94.38062279997393,94.38062279997393,96.26098841002677,96.39432680001482,,,,,,,,,,Levi,002,2023-10-10_15h47.00.916,ASSR3,2022.2.5,60.86934817740039,
0,0,0,0,,,,,,,,,,,,,,101.29225399997085,101.29225399997085,space,9.732264900114387,,,,,Levi,002,2023-10-10_15h47.00.916,ASSR3,2022.2.5,60.86934817740039,
1,0,1,0,0,0,0,0,,,,,111.13045049994253,111.13045049994253,113.04562311007176,113.12889919988811,,,,,,,,,,Levi,002,2023-10-10_15h47.00.916,ASSR3,2022.2.5,60.86934817740039,
1,0,1,0,1,0,1,0,,,,,118.15743390005082,118.15743390005082,120.04101150988136,120.17335689999163,,,,,,,,,,Levi,002,2023-10-10_15h47.00.916,ASSR3,2022.2.5,60.86934817740039,
1,0,1,0,2,0,2,0,,,,,125.15151869994588,125.15151869994588,127.05020760993939,127.14849769999273,,,,,,,,,,Levi,002,2023-10-10_15h47.00.916,ASSR3,2022.2.5,60.86934817740039,
1,0,1,0,3,0,3,0,,,,,132.16168339992873,132.16168339992873,134.04463520988355,134.17568539991044,,,,,,,,,,Levi,002,2023-10-10_15h47.00.916,ASSR3,2022.2.5,60.86934817740039,
1,0,1,0,4,0,4,0,,,,,139.15415570000187,139.15415570000187,141.03633510989602,141.15361359994859,146.06458909995854,,,,,,,,,Levi,002,2023-10-10_15h47.00.916,ASSR3,2022.2.5,60.86934817740039,
1,0,1,0,5,0,5,0,,,,,146.1474146998953,146.1474146998953,148.046293009934,148.14646889991127,,,,,,,,,,Levi,002,2023-10-10_15h47.00.916,ASSR3,2022.2.5,60.86934817740039,
1,0,1,0,6,0,6,0,,,,,153.1586551000364,153.1586551000364,155.04015080996322,155.17466580006294,,,,,,,,,,Levi,002,2023-10-10_15h47.00.916,ASSR3,2022.2.5,60.86934817740039,
1,0,1,0,7,0,7,0,,,,,160.41834149998613,160.41834149998613,162.03389190991874,162.43426660005935,167.06267630006187,,,,,,,,,Levi,002,2023-10-10_15h47.00.916,ASSR3,2022.2.5,60.86934817740039,
1,0,1,0,8,0,8,0,,,,,167.16119479993358,167.16119479993358,169.0428005099995,169.16041620005853,,,,,,,,,,Levi,002,2023-10-10_15h47.00.916,ASSR3,2022.2.5,60.86934817740039,
1,0,1,0,9,0,9,0,,,,,174.16080449987203,174.16080449987203,176.0381768100662,176.1709088999778,181.06661439989693,,,,,,,,,Levi,002,2023-10-10_15h47.00.916,ASSR3,2022.2.5,60.86934817740039,
1,0,1,0,,,,,,,,,,,,,,181.08473109989427,181.08473109989427,space,2.053727800026536,,,,,Levi,002,2023-10-10_15h47.00.916,ASSR3,2022.2.5,60.86934817740039,
2,0,2,0,0,0,0,0,,,,,183.24649469996803,183.24649469996803,185.16197300998027,185.26249779993668,,,,,,,,,,Levi,002,2023-10-10_15h47.00.916,ASSR3,2022.2.5,60.86934817740039,
2,0,2,0,1,0,1,0,,,,,190.27338330005296,190.27338330005296,192.15450620993505,192.2895651999861,,,,,,,,,,Levi,002,2023-10-10_15h47.00.916,ASSR3,2022.2.5,60.86934817740039,
2,0,2,0,2,0,2,0,,,,,197.26789780007675,197.26789780007675,199.148429909884,199.2819113000296,204.17704179999419,,,,,,,,,Levi,002,2023-10-10_15h47.00.916,ASSR3,2022.2.5,60.86934817740039,
2,0,2,0,3,0,3,0,,,,,204.2773203998804,204.2773203998804,206.1594431099249,206.27668210002594,,,,,,,,,,Levi,002,2023-10-10_15h47.00.916,ASSR3,2022.2.5,60.86934817740039,
2,0,2,0,4,0,4,0,,,,,211.2723586000502,211.2723586000502,213.15184720994438,213.2856560999062,,,,,,,,,,Levi,002,2023-10-10_15h47.00.916,ASSR3,2022.2.5,60.86934817740039,
2,0,2,0,5,0,5,0,,,,,218.2665726998821,218.2665726998821,220.16269980992655,220.28077299986035,,,,,,,,,,Levi,002,2023-10-10_15h47.00.916,ASSR3,2022.2.5,60.86934817740039,
2,0,2,0,6,0,6,0,,,,,225.27464289986528,225.27464289986528,227.15554771006572,227.28853320004418,,,,,,,,,,Levi,002,2023-10-10_15h47.00.916,ASSR3,2022.2.5,60.86934817740039,
2,0,2,0,7,0,7,0,,,,,232.2676732998807,232.2676732998807,234.14962821004445,234.28203799994662,239.1777675000485,,,,,,,,,Levi,002,2023-10-10_15h47.00.916,ASSR3,2022.2.5,60.86934817740039,
2,0,2,0,8,0,8,0,,,,,239.2604606000241,239.2604606000241,241.16108100994023,241.27623389987275,,,,,,,,,,Levi,002,2023-10-10_15h47.00.916,ASSR3,2022.2.5,60.86934817740039,
2,0,2,0,9,0,9,0,,,,,246.27092789998278,246.27092789998278,248.15375710993538,248.28600659989752,253.1822069999762,,,,,,,,,Levi,002,2023-10-10_15h47.00.916,ASSR3,2022.2.5,60.86934817740039,
2,0,2,0,,,,,,,,,,,,,,253.19803559989668,253.19803559989668,space,2.152231300016865,,,,,Levi,002,2023-10-10_15h47.00.916,ASSR3,2022.2.5,60.86934817740039,
3,0,3,0,0,0,0,0,,,,,255.462230599951,255.462230599951,257.3777831100626,257.47860060003586,,,,,,,,,,Levi,002,2023-10-10_15h47.00.916,ASSR3,2022.2.5,60.86934817740039,
3,0,3,0,1,0,1,0,,,,,262.4900245000608,262.4900245000608,264.3760571099585,264.4886689998675,,,,,,,,,,Levi,002,2023-10-10_15h47.00.916,ASSR3,2022.2.5,60.86934817740039,
3,0,3,0,2,0,2,0,,,,,269.48310419986956,269.48310419986956,271.3688422098523,271.48106630006805,276.3938519998919,,,,,,,,,Levi,002,2023-10-10_15h47.00.916,ASSR3,2022.2.5,60.86934817740039,
3,0,3,0,3,0,3,0,,,,,276.4762651999481,276.4762651999481,278.37456150997895,278.4915779000148,,,,,,,,,,Levi,002,2023-10-10_15h47.00.916,ASSR3,2022.2.5,60.86934817740039,
3,0,3,0,4,0,4,0,,,,,283.4699079000857,283.4699079000857,285.3683809099486,285.48527060006745,,,,,,,,,,Levi,002,2023-10-10_15h47.00.916,ASSR3,2022.2.5,60.86934817740039,
3,0,3,0,5,0,5,0,,,,,290.48337589995936,290.48337589995936,292.37804830998647,292.4950087000616,,,,,,,,,,Levi,002,2023-10-10_15h47.00.916,ASSR3,2022.2.5,60.86934817740039,
3,0,3,0,6,0,6,0,,,,,297.49197289999574,297.49197289999574,299.37204461002256,299.5057294999715,,,,,,,,,,Levi,002,2023-10-10_15h47.00.916,ASSR3,2022.2.5,60.86934817740039,
3,0,3,0,7,0,7,0,,,,,304.50063299993053,304.50063299993053,306.3652863099007,306.51490409998223,311.3952591998968,,,,,,,,,Levi,002,2023-10-10_15h47.00.916,ASSR3,2022.2.5,60.86934817740039,
3,0,3,0,8,0,8,0,,,,,311.51040120003745,311.51040120003745,313.3762354100356,313.5252960000653,,,,,,,,,,Levi,002,2023-10-10_15h47.00.916,ASSR3,2022.2.5,60.86934817740039,
3,0,3,0,9,0,9,0,,,,,318.48748630005866,318.48748630005866,320.3681294100126,320.4847579000052,325.3969966999721,,,,,,,,,Levi,002,2023-10-10_15h47.00.916,ASSR3,2022.2.5,60.86934817740039,
3,0,3,0,,,,,,,,,,,,,,325.4141613000538,325.4141613000538,space,2.5311461000237614,,,,,Levi,002,2023-10-10_15h47.00.916,ASSR3,2022.2.5,60.86934817740039,
4,0,4,0,0,0,0,0,,,,,328.04550000000745,328.04550000000745,329.9609558099648,330.0600491000805,,,,,,,,,,Levi,002,2023-10-10_15h47.00.916,ASSR3,2022.2.5,60.86934817740039,
4,0,4,0,1,0,1,0,,,,,335.1059719999321,335.1059719999321,336.9540186099941,337.12043150002137,341.9817661999259,,,,,,,,,Levi,002,2023-10-10_15h47.00.916,ASSR3,2022.2.5,60.86934817740039,
4,0,4,0,2,0,2,0,,,,,342.0820883999113,342.0820883999113,343.9494632099988,344.0812202000525,348.97525790007785,,,,,,,,,Levi,002,2023-10-10_15h47.00.916,ASSR3,2022.2.5,60.86934817740039,
4,0,4,0,3,0,3,0,,,,,349.05822309991345,349.05822309991345,350.95677701004314,351.07373069995083,,,,,,,,,,Levi,002,2023-10-10_15h47.00.916,ASSR3,2022.2.5,60.86934817740039,
4,0,4,0,4,0,4,0,,,,,356.0710445998702,356.0710445998702,357.95079130998346,358.0850509998854,362.9791858000681,,,,,,,,,Levi,002,2023-10-10_15h47.00.916,ASSR3,2022.2.5,60.86934817740039,
4,0,4,0,5,0,5,0,,,,,363.0786160000134,363.0786160000134,364.9612862099195,365.0934174999129,,,,,,,,,,Levi,002,2023-10-10_15h47.00.916,ASSR3,2022.2.5,60.86934817740039,
4,0,4,0,6,0,6,0,,,,,370.073195700068,370.073195700068,371.9537293100031,372.0701369000599,376.98237930005416,,,,,,,,,Levi,002,2023-10-10_15h47.00.916,ASSR3,2022.2.5,60.86934817740039,
4,0,4,0,7,0,7,0,,,,,377.0824213998858,377.0824213998858,378.9647560100304,379.100423600059,,,,,,,,,,Levi,002,2023-10-10_15h47.00.916,ASSR3,2022.2.5,60.86934817740039,
4,0,4,0,8,0,8,0,,,,,384.07535669999197,384.07535669999197,385.957248710026,386.07453169999644,,,,,,,,,,Levi,002,2023-10-10_15h47.00.916,ASSR3,2022.2.5,60.86934817740039,
4,0,4,0,9,0,9,0,,,,,391.0685213999823,391.0685213999823,392.9501894099405,393.067534300033,397.9806603998877,,,,,,,,,Levi,002,2023-10-10_15h47.00.916,ASSR3,2022.2.5,60.86934817740039,
4,0,4,0,,,,,,,,,,,,,,397.99701080005616,397.99701080005616,space,2.277092200005427,,,,,Levi,002,2023-10-10_15h47.00.916,ASSR3,2022.2.5,60.86934817740039,
,,,,,,,,,,,,,,,,,,,,,400.29646690003574,400.29646690003574,space,1.848192600067705,Levi,002,2023-10-10_15h47.00.916,ASSR3,2022.2.5,60.86934817740039,
