trials.thisRepN,trials.thisTrialN,trials.thisN,trials.thisIndex,trials_3.thisRepN,trials_3.thisTrialN,trials_3.thisN,trials_3.thisIndex,text_2.started,key_resp.started,key_resp.keys,key_resp.rt,text_4.started,text_4.stopped,InstructionsText.started,InstrucKey.started,InstrucKey.keys,InstrucKey.rt,ISI,ISI_text.started,dontrespond.started,dontrespond.stopped,ISI_text.stopped,dontrespond.keys,Targetstim.started,Response.started,Accuracy,RTms,Response.keys,Response.rt,Feedback_text.started,Feedback_text.stopped,text_6.started,key_resp_2.started,key_resp_2.keys,key_resp_2.rt,key_resp_4.started,text_7.started,MathsFailCounter,key_resp_4.keys,key_resp_4.rt,participant,session,date,expName,psychopyVersion,frameRate,
,,,,,,,,11.205796199967153,11.205796199967153,space,5.609922399977222,,,,,,,,,,,,,,,,,,,,,,,,,,,,,,517555,001,2023-12-13_13h58.13.895,game,2022.2.5,60.027252356463904,
,,,,,,,,,,,,16.84409350005444,46.85302369995043,46.85302369995043,46.85302369995043,space,24.86972760001663,,,,,,,,,,,,,,,,,,,,,,,,517555,001,2023-12-13_13h58.13.895,game,2022.2.5,60.027252356463904,
0,0,0,0,,,,,,,,,,,,,,,4,71.73937900003511,71.73937900003511,74.7418940999778,75.74274959997274,None,75.74274959997274,75.74274959997274,1,324.3448999710381,space,0.3243448999710381,76.09429349994753,76.59449609997682,,,,,,,,,,517555,001,2023-12-13_13h58.13.895,game,2022.2.5,60.027252356463904,
1,0,1,0,,,,,,,,,,,,,,,3,76.59449609997682,76.59449609997682,78.59512770001311,79.59592640004121,None,79.59592640004121,79.59592640004121,1,343.47550000529736,space,0.34347550000529736,79.9629310000455,80.46330740000121,,,,,,,,,,517555,001,2023-12-13_13h58.13.895,game,2022.2.5,60.027252356463904,
2,0,2,0,,,,,,,,,,,,,,,4,80.46330740000121,80.46330740000121,83.4658489000285,84.46671229996718,None,84.46671229996718,84.46671229996718,1,306.4359000418335,space,0.3064359000418335,84.80024360003881,85.30061419995036,,,,,,,,,,517555,001,2023-12-13_13h58.13.895,game,2022.2.5,60.027252356463904,
3,0,3,0,,,,,,,,,,,,,,,3,85.30061419995036,85.30061419995036,87.30240709998179,88.30325320002157,None,88.30325320002157,88.30325320002157,1,311.1044999677688,space,0.3111044999677688,88.6367515999591,89.13727740000468,,,,,,,,,,517555,001,2023-12-13_13h58.13.895,game,2022.2.5,60.027252356463904,
4,0,4,0,,,,,,,,,,,,,,,2,89.13727740000468,89.13727740000468,90.13830920006149,91.13889239996206,None,91.13889239996206,91.13889239996206,1,326.30010007414967,space,0.32630010007414967,91.48923940001987,91.9895564999897,,,,,,,,,,517555,001,2023-12-13_13h58.13.895,game,2022.2.5,60.027252356463904,
5,0,5,0,,,,,,,,,,,,,,,2,91.9895564999897,91.9895564999897,92.99084400001448,93.9917508000508,None,93.9917508000508,93.9917508000508,1,321.96150009986013,space,0.32196150009986013,94.34179860004224,94.84208850003779,,,,,,,,,,517555,001,2023-12-13_13h58.13.895,game,2022.2.5,60.027252356463904,
6,0,6,0,,,,,,,,,,,,,,,4,94.84208850003779,94.84208850003779,97.84439270000439,,None,,,0,nan,None,,103.01532480004244,103.51575699995738,,,,,,,,,,517555,001,2023-12-13_13h58.13.895,game,2022.2.5,60.027252356463904,
7,0,7,0,,,,,,,,,,,,,,,4,103.51575699995738,103.51575699995738,,,None,,,0,nan,None,,108.53656429995317,109.03697829996236,,,,,,,,,,517555,001,2023-12-13_13h58.13.895,game,2022.2.5,60.027252356463904,
8,0,8,0,,,,,,,,,,,,,,,4,109.03697829996236,109.03697829996236,112.04057820001617,113.04131450003479,None,113.04131450003479,113.04131450003479,1,510.5290000792593,space,0.5105290000792593,113.5760548999533,114.07531960005872,,,,,,,,,,517555,001,2023-12-13_13h58.13.895,game,2022.2.5,60.027252356463904,
9,0,9,0,,,,,,,,,,,,,,,4,114.07531960005872,114.07531960005872,117.07801729999483,118.07798800000455,None,118.07798800000455,118.07798800000455,1,531.3749000197276,space,0.5313749000197276,118.62859690003097,119.12876590003725,,,,,,,,,,517555,001,2023-12-13_13h58.13.895,game,2022.2.5,60.027252356463904,
10,0,10,0,,,,,,,,,,,,,,,1,119.12876590003725,119.12876590003725,119.12876590003725,120.12974160001613,None,120.12974160001613,120.12974160001613,1,554.0700999554247,space,0.5540700999554247,120.71358199999668,121.21393810003065,,,,,,,,,,517555,001,2023-12-13_13h58.13.895,game,2022.2.5,60.027252356463904,
11,0,11,0,,,,,,,,,,,,,,,4,121.21393810003065,121.21393810003065,124.21625870000571,125.21714129997417,None,125.21714129997417,125.21714129997417,1,370.6053000641987,space,0.3706053000641987,125.60083370003849,126.10142239998095,,,,,,,,,,517555,001,2023-12-13_13h58.13.895,game,2022.2.5,60.027252356463904,
12,0,12,0,,,,,,,,,,,,,,,4,126.10142239998095,126.10142239998095,129.1037942999974,130.10497650003526,None,130.10497650003526,130.10497650003526,1,414.30209996178746,space,0.41430209996178746,130.5381202000426,131.0386593999574,,,,,,,,,,517555,001,2023-12-13_13h58.13.895,game,2022.2.5,60.027252356463904,
13,0,13,0,,,,,,,,,,,,,,,1,131.0386593999574,131.0386593999574,131.0386593999574,132.03958710003644,None,132.03958710003644,132.03958710003644,1,434.1709000291303,space,0.4341709000291303,132.48979460005648,132.99037140002474,,,,,,,,,,517555,001,2023-12-13_13h58.13.895,game,2022.2.5,60.027252356463904,
,,,,,,,,,,,,,,,,,,,,,,,,,,,,,,,,132.99037140002474,132.99037140002474,space,1.8842989000258967,,,,,,517555,001,2023-12-13_13h58.13.895,game,2022.2.5,60.027252356463904,
,,,,0,0,0,0,,,,,,,,,,,,,,,,,,,,,,,,,,,,,134.89189530001022,134.89189530001022,0,7,10.421086700051092,517555,001,2023-12-13_13h58.13.895,game,2022.2.5,60.027252356463904,
,,,,1,0,1,0,,,,,,,,,,,,,,,,,,,,,,,,,,,,,145.80089419998694,145.80089419998694,0,0,7.735311500029638,517555,001,2023-12-13_13h58.13.895,game,2022.2.5,60.027252356463904,
,,,,2,0,2,0,,,,,,,,,,,,,,,,,,,,,,,,,,,,,153.9569714999525,153.9569714999525,1,6,6.64301339990925,517555,001,2023-12-13_13h58.13.895,game,2022.2.5,60.027252356463904,
,,,,3,0,3,0,,,,,,,,,,,,,,,,,,,,,,,,,,,,,161.06343760003801,161.06343760003801,0,3,6.354292200063355,517555,001,2023-12-13_13h58.13.895,game,2022.2.5,60.027252356463904,
,,,,4,0,4,0,,,,,,,,,,,,,,,,,,,,,,,,,,,,,167.83592620003037,167.83592620003037,0,8,5.9498762000584975,517555,001,2023-12-13_13h58.13.895,game,2022.2.5,60.027252356463904,
,,,,5,0,5,0,,,,,,,,,,,,,,,,,,,,,,,,,,,,,174.29162020003423,174.29162020003423,0,9,9.16152140009217,517555,001,2023-12-13_13h58.13.895,game,2022.2.5,60.027252356463904,
,,,,6,0,6,0,,,,,,,,,,,,,,,,,,,,,,,,,,,,,183.89926950004883,183.89926950004883,0,2,4.424864099943079,517555,001,2023-12-13_13h58.13.895,game,2022.2.5,60.027252356463904,
,,,,7,0,7,0,,,,,,,,,,,,,,,,,,,,,,,,,,,,,188.8532568999799,188.8532568999799,0,6,5.781888400088064,517555,001,2023-12-13_13h58.13.895,game,2022.2.5,60.027252356463904,
,,,,8,0,8,0,,,,,,,,,,,,,,,,,,,,,,,,,,,,,195.05831530003343,195.05831530003343,0,2,7.867823400069028,517555,001,2023-12-13_13h58.13.895,game,2022.2.5,60.027252356463904,
,,,,9,0,9,0,,,,,,,,,,,,,,,,,,,,,,,,,,,,,203.38195269997232,203.38195269997232,0,5,4.909342799917795,517555,001,2023-12-13_13h58.13.895,game,2022.2.5,60.027252356463904,
,,,,10,0,10,0,,,,,,,,,,,,,,,,,,,,,,,,,,,,,208.7198042999953,208.7198042999953,0,5,5.031425100052729,517555,001,2023-12-13_13h58.13.895,game,2022.2.5,60.027252356463904,
,,,,11,0,11,0,,,,,,,,,,,,,,,,,,,,,,,,,,,,,214.1577782999957,214.1577782999957,0,1,5.137390000047162,517555,001,2023-12-13_13h58.13.895,game,2022.2.5,60.027252356463904,
,,,,12,0,12,0,,,,,,,,,,,,,,,,,,,,,,,,,,,,,219.7622378000524,219.7622378000524,0,0,2.3339963000034913,517555,001,2023-12-13_13h58.13.895,game,2022.2.5,60.027252356463904,
,,,,13,0,13,0,,,,,,,,,,,,,,,,,,,,,,,,,,,,,222.56481240002904,222.56481240002904,0,4,3.445613299962133,517555,001,2023-12-13_13h58.13.895,game,2022.2.5,60.027252356463904,
,,,,14,0,14,0,,,,,,,,,,,,,,,,,,,,,,,,,,,,,226.40109089994803,226.40109089994803,0,4,16.27603980002459,517555,001,2023-12-13_13h58.13.895,game,2022.2.5,60.027252356463904,
,,,,15,0,15,0,,,,,,,,,,,,,,,,,,,,,,,,,,,,,243.080809499952,243.080809499952,0,0,2.7954418000299484,517555,001,2023-12-13_13h58.13.895,game,2022.2.5,60.027252356463904,
,,,,16,0,16,0,,,,,,,,,,,,,,,,,,,,,,,,,,,,,246.3509126000572,246.3509126000572,0,6,6.02553739992436,517555,001,2023-12-13_13h58.13.895,game,2022.2.5,60.027252356463904,
,,,,17,0,17,0,,,,,,,,,,,,,,,,,,,,,,,,,,,,,252.83980069996323,252.83980069996323,,None,,517555,001,2023-12-13_13h58.13.895,game,2022.2.5,60.027252356463904,
