trials.thisRepN,trials.thisTrialN,trials.thisN,trials.thisIndex,trials_3.thisRepN,trials_3.thisTrialN,trials_3.thisN,trials_3.thisIndex,trials_6.thisRepN,trials_6.thisTrialN,trials_6.thisN,trials_6.thisIndex,trials_5.thisRepN,trials_5.thisTrialN,trials_5.thisN,trials_5.thisIndex,trials_4.thisRepN,trials_4.thisTrialN,trials_4.thisN,trials_4.thisIndex,trials_2.thisRepN,trials_2.thisTrialN,trials_2.thisN,trials_2.thisIndex,text_2.started,key_resp.started,key_resp.keys,key_resp.rt,text_4.started,text_4.stopped,InstructionsText.started,InstrucKey.started,InstrucKey.keys,InstrucKey.rt,ISI,ISI_text.started,dontrespond.started,dontrespond.stopped,ISI_text.stopped,dontrespond.keys,Targetstim.started,Response.started,Accuracy,RTms,Response.keys,Response.rt,Feedback_text.started,Feedback_text.stopped,text_6.started,key_resp_2.started,key_resp_2.keys,key_resp_2.rt,key_resp_4.started,text_7.started,MathsFailCounter,key_resp_4.keys,key_resp_4.rt,text_13.started,key_resp_6.started,key_resp_6.keys,key_resp_6.rt,text_3.started,participant,session,date,expName,psychopyVersion,frameRate,
,,,,,,,,,,,,,,,,,,,,,,,,31.558001800003694,31.558001800003694,space,11.402962700027274,,,,,,,,,,,,,,,,,,,,,,,,,,,,,,,,,,,751977,001,2023-12-13_15h33.40.021,game,2022.2.5,60.35640457063546,
,,,,,,,,,,,,,,,,,,,,,,,,,,,,42.97733600001084,72.98388840002008,72.98388840002008,72.98388840002008,space,3.927641299989773,,,,,,,,,,,,,,,,,,,,,,,,,,,,,751977,001,2023-12-13_15h33.40.021,game,2022.2.5,60.35640457063546,
0,0,0,0,,,,,,,,,,,,,,,,,,,,,,,,,,,,,,,4,76.92890890000854,76.92890890000854,79.94288030001917,80.94210310000926,None,80.94210310000926,80.94210310000926,1,326.0952999989968,space,0.3260952999989968,81.2917054000136,81.7914878000156,,,,,,,,,,,,,,,751977,001,2023-12-13_15h33.40.021,game,2022.2.5,60.35640457063546,
1,0,1,0,,,,,,,,,,,,,,,,,,,,,,,,,,,,,,,1,81.7914878000156,81.7914878000156,81.7914878000156,82.79026420001173,None,82.79026420001173,82.79026420001173,1,416.76360002020374,space,0.41676360002020374,83.22316120000323,83.72339070000453,,,,,,,,,,,,,,,751977,001,2023-12-13_15h33.40.021,game,2022.2.5,60.35640457063546,
2,0,2,0,,,,,,,,,,,,,,,,,,,,,,,,,,,,,,,4,83.72339070000453,83.72339070000453,86.73912919999566,87.73623790001147,None,87.73623790001147,87.73623790001147,1,359.28030000650324,space,0.35928030000650324,88.1188625000068,88.61806730000535,,,,,,,,,,,,,,,751977,001,2023-12-13_15h33.40.021,game,2022.2.5,60.35640457063546,
3,0,3,0,,,,,,,,,,,,,,,,,,,,,,,,,,,,,,,4,88.61806730000535,88.61806730000535,91.63275230000727,92.6309934000019,None,92.6309934000019,92.6309934000019,1,283.70810000342317,space,0.28370810000342317,92.93063230000553,93.43099910000456,,,,,,,,,,,,,,,751977,001,2023-12-13_15h33.40.021,game,2022.2.5,60.35640457063546,
4,0,4,0,,,,,,,,,,,,,,,,,,,,,,,,,,,,,,,2,93.43099910000456,93.43099910000456,94.446111199999,95.4451476999966,None,95.4451476999966,95.4451476999966,1,299.28870001458563,space,0.29928870001458563,95.76193470001454,96.26089760000468,,,,,,,,,,,,,,,751977,001,2023-12-13_15h33.40.021,game,2022.2.5,60.35640457063546,
5,0,5,0,,,,,,,,,,,,,,,,,,,,,,,,,,,,,,,4,96.26089760000468,96.26089760000468,99.27512800000841,100.27372850000393,None,100.27372850000393,100.27372850000393,1,294.0058000094723,space,0.2940058000094723,100.59007289999863,101.08965189999435,,,,,,,,,,,,,,,751977,001,2023-12-13_15h33.40.021,game,2022.2.5,60.35640457063546,
6,0,6,0,,,,,,,,,,,,,,,,,,,,,,,,,,,,,,,3,101.08965189999435,101.08965189999435,103.10494020002079,104.10358360002283,None,104.10358360002283,104.10358360002283,1,281.83170000556856,space,0.28183170000556856,104.40318210000987,104.9034440999967,,,,,,,,,,,,,,,751977,001,2023-12-13_15h33.40.021,game,2022.2.5,60.35640457063546,
7,0,7,0,,,,,,,,,,,,,,,,,,,,,,,,,,,,,,,3,104.9034440999967,104.9034440999967,106.91839370000525,107.91771350000636,None,107.91771350000636,107.91771350000636,1,288.7732000090182,space,0.2887732000090182,108.23373090001405,108.7327277000004,,,,,,,,,,,,,,,751977,001,2023-12-13_15h33.40.021,game,2022.2.5,60.35640457063546,
8,0,8,0,,,,,,,,,,,,,,,,,,,,,,,,,,,,,,,3,108.7327277000004,108.7327277000004,110.74780800001463,111.74641340001835,None,111.74641340001835,111.74641340001835,1,274.53110000351444,space,0.27453110000351444,112.04661260001012,112.54616460000398,,,,,,,,,,,,,,,751977,001,2023-12-13_15h33.40.021,game,2022.2.5,60.35640457063546,
9,0,9,0,,,,,,,,,,,,,,,,,,,,,,,,,,,,,,,1,112.54616460000398,112.54616460000398,112.54616460000398,113.54521959999693,None,113.54521959999693,113.54521959999693,1,432.68920000991784,space,0.43268920000991784,113.99445339999511,114.49392629999784,,,,,,,,,,,,,,,751977,001,2023-12-13_15h33.40.021,game,2022.2.5,60.35640457063546,
10,0,10,0,,,,,,,,,,,,,,,,,,,,,,,,,,,,,,,3,114.49392629999784,114.49392629999784,116.50868339999579,117.50841530002072,None,117.50841530002072,117.50841530002072,1,363.6294000025373,space,0.3636294000025373,117.89094410001417,118.39013889999478,,,,,,,,,,,,,,,751977,001,2023-12-13_15h33.40.021,game,2022.2.5,60.35640457063546,
11,0,11,0,,,,,,,,,,,,,,,,,,,,,,,,,,,,,,,1,118.39013889999478,118.39013889999478,118.39013889999478,119.39005770001677,None,119.39005770001677,119.39005770001677,1,353.13940001651645,space,0.35313940001651645,119.77276390002226,120.27217090001795,,,,,,,,,,,,,,,751977,001,2023-12-13_15h33.40.021,game,2022.2.5,60.35640457063546,
12,0,12,0,,,,,,,,,,,,,,,,,,,,,,,,,,,,,,,1,120.27217090001795,120.27217090001795,120.27217090001795,121.28786120002042,None,121.28786120002042,121.28786120002042,1,295.2143000147771,space,0.2952143000147771,121.60382020001998,122.10464800000773,,,,,,,,,,,,,,,751977,001,2023-12-13_15h33.40.021,game,2022.2.5,60.35640457063546,
13,0,13,0,,,,,,,,,,,,,,,,,,,,,,,,,,,,,,,3,122.10464800000773,122.10464800000773,124.11926750000566,125.11775160001707,None,125.11775160001707,125.11775160001707,1,275.6404999818187,space,0.2756404999818187,125.41737920002197,125.9171460000216,,,,,,,,,,,,,,,751977,001,2023-12-13_15h33.40.021,game,2022.2.5,60.35640457063546,
14,0,14,0,,,,,,,,,,,,,,,,,,,,,,,,,,,,,,,4,125.9171460000216,125.9171460000216,128.9305149000138,129.92928140002186,None,129.92928140002186,129.92928140002186,1,357.00530000030994,space,0.35700530000030994,130.31287029999658,130.81236250000075,,,,,,,,,,,,,,,751977,001,2023-12-13_15h33.40.021,game,2022.2.5,60.35640457063546,
15,0,15,0,,,,,,,,,,,,,,,,,,,,,,,,,,,,,,,1,130.81236250000075,130.81236250000075,130.81236250000075,131.81144459999632,None,131.81144459999632,131.81144459999632,1,428.02549997577444,space,0.42802549997577444,132.2608647000161,132.75997800001642,,,,,,,,,,,,,,,751977,001,2023-12-13_15h33.40.021,game,2022.2.5,60.35640457063546,
16,0,16,0,,,,,,,,,,,,,,,,,,,,,,,,,,,,,,,2,132.75997800001642,132.75997800001642,133.75986869999906,134.77538970002206,None,134.77538970002206,134.77538970002206,1,280.4201999970246,space,0.2804201999970246,135.07458610000322,135.5744565000059,,,,,,,,,,,,,,,751977,001,2023-12-13_15h33.40.021,game,2022.2.5,60.35640457063546,
17,0,17,0,,,,,,,,,,,,,,,,,,,,,,,,,,,,,,,2,135.5744565000059,135.5744565000059,136.57338210000307,137.58957250000094,None,137.58957250000094,137.58957250000094,1,258.53670001379214,space,0.25853670001379214,137.87225860002218,138.37272430001758,,,,,,,,,,,,,,,751977,001,2023-12-13_15h33.40.021,game,2022.2.5,60.35640457063546,
,,,,,,,,,,,,,,,,,,,,,,,,,,,,,,,,,,,,,,,,,,,,,,,,138.37272430001758,138.37272430001758,space,2.502685500017833,,,,,,,,,,,751977,001,2023-12-13_15h33.40.021,game,2022.2.5,60.35640457063546,
,,,,0,0,0,0,,,,,,,,,,,,,,,,,,,,,,,,,,,,,,,,,,,,,,,,,,,,,140.9026303999999,140.9026303999999,0,1,2.4860026000242215,,,,,,751977,001,2023-12-13_15h33.40.021,game,2022.2.5,60.35640457063546,
,,,,1,0,1,0,,,,,,,,,,,,,,,,,,,,,,,,,,,,,,,,,,,,,,,,,,,,,143.79972559999442,143.79972559999442,0,0,2.2910095999832265,,,,,,751977,001,2023-12-13_15h33.40.021,game,2022.2.5,60.35640457063546,
,,,,2,0,2,0,,,,,,,,,,,,,,,,,,,,,,,,,,,,,,,,,,,,,,,,,,,,,146.23016750000534,146.23016750000534,0,4,6.3995959000021685,,,,,,751977,001,2023-12-13_15h33.40.021,game,2022.2.5,60.35640457063546,
,,,,3,0,3,0,,,,,,,,,,,,,,,,,,,,,,,,,,,,,,,,,,,,,,,,,,,,,153.09097600000678,153.09097600000678,0,2,3.1985920000006445,,,,,,751977,001,2023-12-13_15h33.40.021,game,2022.2.5,60.35640457063546,
,,,,4,0,4,0,,,,,,,,,,,,,,,,,,,,,,,,,,,,,,,,,,,,,,,,,,,,,156.72078840000904,156.72078840000904,0,1,6.7427014999848325,,,,,,751977,001,2023-12-13_15h33.40.021,game,2022.2.5,60.35640457063546,
,,,,5,0,5,0,,,,,,,,,,,,,,,,,,,,,,,,,,,,,,,,,,,,,,,,,,,,,163.9639532000001,163.9639532000001,2,3,14.543970900005661,,,,,,751977,001,2023-12-13_15h33.40.021,game,2022.2.5,60.35640457063546,
,,,,6,0,6,0,,,,,,,,,,,,,,,,,,,,,,,,,,,,,,,,,,,,,,,,,,,,,178.9172685999947,178.9172685999947,0,5,2.4954640999785624,,,,,,751977,001,2023-12-13_15h33.40.021,game,2022.2.5,60.35640457063546,
,,,,7,0,7,0,,,,,,,,,,,,,,,,,,,,,,,,,,,,,,,,,,,,,,,,,,,,,181.83058480001637,181.83058480001637,0,3,6.718632500007516,,,,,,751977,001,2023-12-13_15h33.40.021,game,2022.2.5,60.35640457063546,
,,,,8,0,8,0,,,,,,,,,,,,,,,,,,,,,,,,,,,,,,,,,,,,,,,,,,,,,188.97510750000947,188.97510750000947,0,5,9.666386700002477,,,,,,751977,001,2023-12-13_15h33.40.021,game,2022.2.5,60.35640457063546,
,,,,9,0,9,0,,,,,,,,,,,,,,,,,,,,,,,,,,,,,,,,,,,,,,,,,,,,,199.04736110000522,199.04736110000522,0,4,3.3525665000197478,,,,,,751977,001,2023-12-13_15h33.40.021,game,2022.2.5,60.35640457063546,
,,,,10,0,10,0,,,,,,,,,,,,,,,,,,,,,,,,,,,,,,,,,,,,,,,,,,,,,202.81110869999975,202.81110869999975,0,4,2.7576809000165667,,,,,,751977,001,2023-12-13_15h33.40.021,game,2022.2.5,60.35640457063546,
,,,,11,0,11,0,,,,,,,,,,,,,,,,,,,,,,,,,,,,,,,,,,,,,,,,,,,,,205.9911209999991,205.9911209999991,0,5,7.865527499991003,,,,,,751977,001,2023-12-13_15h33.40.021,game,2022.2.5,60.35640457063546,
,,,,12,0,12,0,,,,,,,,,,,,,,,,,,,,,,,,,,,,,,,,,,,,,,,,,,,,,214.26756239999668,214.26756239999668,0,7,24.019699900003616,,,,,,751977,001,2023-12-13_15h33.40.021,game,2022.2.5,60.35640457063546,
,,,,13,0,13,0,,,,,,,,,,,,,,,,,,,,,,,,,,,,,,,,,,,,,,,,,,,,,238.74409670001478,238.74409670001478,0,7,3.445946099993307,,,,,,751977,001,2023-12-13_15h33.40.021,game,2022.2.5,60.35640457063546,
,,,,14,0,14,0,,,,,,,,,,,,,,,,,,,,,,,,,,,,,,,,,,,,,,,,,,,,,242.6233721000026,242.6233721000026,0,3,1.855965599999763,,,,,,751977,001,2023-12-13_15h33.40.021,game,2022.2.5,60.35640457063546,
,,,,15,0,15,0,,,,,,,,,,,,,,,,,,,,,,,,,,,,,,,,,,,,,,,,,,,,,244.87135410000337,244.87135410000337,0,5,3.3732224000268616,,,,,,751977,001,2023-12-13_15h33.40.021,game,2022.2.5,60.35640457063546,
,,,,16,0,16,0,,,,,,,,,,,,,,,,,,,,,,,,,,,,,,,,,,,,,,,,,,,,,248.60122989999945,248.60122989999945,0,0,4.83891470002709,,,,,,751977,001,2023-12-13_15h33.40.021,game,2022.2.5,60.35640457063546,
,,,,17,0,17,0,,,,,,,,,,,,,,,,,,,,,,,,,,,,,,,,,,,,,,,,,,,,,253.83006249999744,253.83006249999744,0,1,3.2849729000008665,,,,,,751977,001,2023-12-13_15h33.40.021,game,2022.2.5,60.35640457063546,
,,,,18,0,18,0,,,,,,,,,,,,,,,,,,,,,,,,,,,,,,,,,,,,,,,,,,,,,257.49284530000295,257.49284530000295,,None,,,,,,,751977,001,2023-12-13_15h33.40.021,game,2022.2.5,60.35640457063546,
,,,,,,,,,,,,,,,,,,,,,,,,,,,,,,,,,,,,,,,,,,,,,,,,,,,,,,,,,1631.6930451000226,1631.6930451000226,space,2.0545928000065032,,751977,001,2023-12-13_15h33.40.021,game,2022.2.5,60.35640457063546,
,,,,,,,,,,,,,,,,,,,,,,,,,,,,,,1633.7751310000021,1633.7751310000021,space,2.3180226999975275,,,,,,,,,,,,,,,,,,,,,,,,,,,,,751977,001,2023-12-13_15h33.40.021,game,2022.2.5,60.35640457063546,
,,,,,,,,0,0,0,0,,,,,,,,,,,,,,,,,,,,,,,4,1636.1220273000072,1636.1220273000072,1639.136068599997,1640.1350217,None,1640.1350217,1640.1350217,1,344.4640999950934,space,0.3444640999950934,1640.5017806999967,1641.0015806000156,,,,,,,,,,,,,,,751977,001,2023-12-13_15h33.40.021,game,2022.2.5,60.35640457063546,
,,,,,,,,1,0,1,0,,,,,,,,,,,,,,,,,,,,,,,4,1641.0015806000156,1641.0015806000156,1644.0149477999948,1645.0144750000036,None,1645.0144750000036,1645.0144750000036,1,290.8565000107046,space,0.2908565000107046,1645.3309776000096,1645.8466906000103,,,,,,,,,,,,,,,751977,001,2023-12-13_15h33.40.021,game,2022.2.5,60.35640457063546,
,,,,,,,,2,0,2,0,,,,,,,,,,,,,,,,,,,,,,,1,1645.8466906000103,1645.8466906000103,1645.8466906000103,1646.8624337000074,None,1646.8624337000074,1646.8624337000074,1,411.6801000200212,space,0.4116801000200212,1647.2956587000226,1647.8115700000199,,,,,,,,,,,,,,,751977,001,2023-12-13_15h33.40.021,game,2022.2.5,60.35640457063546,
,,,,,,,,3,0,3,0,,,,,,,,,,,,,,,,,,,,,,,1,1647.8115700000199,1647.8115700000199,1647.8115700000199,1648.810732300015,None,1648.810732300015,1648.810732300015,1,367.2022999962792,space,0.3672022999962792,1649.1933088000224,1649.6929851000023,,,,,,,,,,,,,,,751977,001,2023-12-13_15h33.40.021,game,2022.2.5,60.35640457063546,
,,,,,,,,4,0,4,0,,,,,,,,,,,,,,,,,,,,,,,2,1649.6929851000023,1649.6929851000023,1650.7089760999952,1651.708210300014,None,1651.708210300014,1651.708210300014,1,265.65970000228845,space,0.26565970000228845,1651.9912709000055,1652.4903354000126,,,,,,,,,,,,,,,751977,001,2023-12-13_15h33.40.021,game,2022.2.5,60.35640457063546,
,,,,,,,,5,0,5,0,,,,,,,,,,,,,,,,,,,,,,,2,1652.4903354000126,1652.4903354000126,1653.4899179000058,1654.505449999997,None,1654.505449999997,1654.505449999997,1,266.1052999901585,space,0.26610529999015853,1654.7879565000185,1655.2874940000183,,,,,,,,,,,,,,,751977,001,2023-12-13_15h33.40.021,game,2022.2.5,60.35640457063546,
,,,,,,,,6,0,6,0,,,,,,,,,,,,,,,,,,,,,,,3,1655.2874940000183,1655.2874940000183,1657.3025407000096,,None,,,0,nan,None,,1663.0141297999944,1663.513502900023,,,,,,,,,,,,,,,751977,001,2023-12-13_15h33.40.021,game,2022.2.5,60.35640457063546,
,,,,,,,,7,0,7,0,,,,,,,,,,,,,,,,,,,,,,,2,1663.513502900023,1663.513502900023,1664.5121599000122,1665.5283554000198,None,1665.5283554000198,1665.5283554000198,1,410.6215999927372,space,0.4106215999927372,1665.9613230999967,1666.4610074000084,,,,,,,,,,,,,,,751977,001,2023-12-13_15h33.40.021,game,2022.2.5,60.35640457063546,
,,,,,,,,8,0,8,0,,,,,,,,,,,,,,,,,,,,,,,1,1666.4610074000084,1666.4610074000084,1666.4610074000084,1667.4764854999958,None,1667.4764854999958,1667.4764854999958,1,419.8529000277631,space,0.4198529000277631,1667.9257480000088,1668.4255891000212,,,,,,,,,,,,,,,751977,001,2023-12-13_15h33.40.021,game,2022.2.5,60.35640457063546,
,,,,,,,,9,0,9,0,,,,,,,,,,,,,,,,,,,,,,,3,1668.4255891000212,1668.4255891000212,1670.4408060999995,1671.4397473999998,None,1671.4397473999998,1671.4397473999998,1,288.68520000833087,space,0.28868520000833087,1671.7554581000004,1672.2555073999974,,,,,,,,,,,,,,,751977,001,2023-12-13_15h33.40.021,game,2022.2.5,60.35640457063546,
,,,,,,,,10,0,10,0,,,,,,,,,,,,,,,,,,,,,,,2,1672.2555073999974,1672.2555073999974,1673.2548362000089,1674.2699386000168,None,1674.2699386000168,1674.2699386000168,1,291.2126000155695,space,0.2912126000155695,1674.5861730000179,1675.0856805000221,,,,,,,,,,,,,,,751977,001,2023-12-13_15h33.40.021,game,2022.2.5,60.35640457063546,
,,,,,,,,11,0,11,0,,,,,,,,,,,,,,,,,,,,,,,4,1675.0856805000221,1675.0856805000221,1678.099535300018,1679.098602300015,None,1679.098602300015,1679.098602300015,1,250.86289999308065,space,0.25086289999308065,1679.365140000009,1679.865198400017,,,,,,,,,,,,,,,751977,001,2023-12-13_15h33.40.021,game,2022.2.5,60.35640457063546,
,,,,,,,,12,0,12,0,,,,,,,,,,,,,,,,,,,,,,,3,1679.865198400017,1679.865198400017,1681.8794677999977,1682.879199899995,None,1682.879199899995,1682.879199899995,1,251.2027000193484,space,0.2512027000193484,1683.1452239000064,1683.6443016999983,,,,,,,,,,,,,,,751977,001,2023-12-13_15h33.40.021,game,2022.2.5,60.35640457063546,
,,,,,,,,13,0,13,0,,,,,,,,,,,,,,,,,,,,,,,4,1683.6443016999983,1683.6443016999983,1686.6587451000232,1687.657957700023,None,1687.657957700023,1687.657957700023,1,269.2631999962032,space,0.2692631999962032,1687.957007799996,1688.4565146999958,,,,,,,,,,,,,,,751977,001,2023-12-13_15h33.40.021,game,2022.2.5,60.35640457063546,
,,,,,,,,14,0,14,0,,,,,,,,,,,,,,,,,,,,,,,3,1688.4565146999958,1688.4565146999958,1690.471811299998,1691.4710768000223,None,1691.4710768000223,1691.4710768000223,1,283.43979999772273,space,0.28343979999772273,1691.7701402000093,1692.2701674000127,,,,,,,,,,,,,,,751977,001,2023-12-13_15h33.40.021,game,2022.2.5,60.35640457063546,
,,,,,,,,15,0,15,0,,,,,,,,,,,,,,,,,,,,,,,3,1692.2701674000127,1692.2701674000127,1694.2845880000095,1695.2840596000024,None,1695.2840596000024,1695.2840596000024,1,313.6579999991227,space,0.3136579999991227,1695.6169647000206,1696.1163159999996,,,,,,,,,,,,,,,751977,001,2023-12-13_15h33.40.021,game,2022.2.5,60.35640457063546,
,,,,,,,,16,0,16,0,,,,,,,,,,,,,,,,,,,,,,,3,1696.1163159999996,1696.1163159999996,1698.1313444999978,1699.130130000005,None,1699.130130000005,1699.130130000005,1,265.29239999945275,space,0.26529239999945275,1699.4133138000034,1699.9135793000169,,,,,,,,,,,,,,,751977,001,2023-12-13_15h33.40.021,game,2022.2.5,60.35640457063546,
,,,,,,,,,,,,,,,,,,,,,,,,,,,,,,,,,,,,,,,,,,,,,,,,1699.9135793000169,1699.9135793000169,space,1.274536100012483,,,,,,,,,,,751977,001,2023-12-13_15h33.40.021,game,2022.2.5,60.35640457063546,
,,,,,,,,,,,,0,0,0,0,,,,,,,,,,,,,,,,,,,,,,,,,,,,,,,,,,,,,1701.2116385000118,1701.2116385000118,0,4,10.050763999985065,,,,,,751977,001,2023-12-13_15h33.40.021,game,2022.2.5,60.35640457063546,
,,,,,,,,,,,,1,0,1,0,,,,,,,,,,,,,,,,,,,,,,,,,,,,,,,,,,,,,1711.6514859000163,1711.6514859000163,0,4,2.81022730001132,,,,,,751977,001,2023-12-13_15h33.40.021,game,2022.2.5,60.35640457063546,
,,,,,,,,,,,,2,0,2,0,,,,,,,,,,,,,,,,,,,,,,,,,,,,,,,,,,,,,1714.848120300012,1714.848120300012,0,2,1.5861598000046797,,,,,,751977,001,2023-12-13_15h33.40.021,game,2022.2.5,60.35640457063546,
,,,,,,,,,,,,3,0,3,0,,,,,,,,,,,,,,,,,,,,,,,,,,,,,,,,,,,,,1716.8630893000227,1716.8630893000227,0,4,2.922134000022197,,,,,,751977,001,2023-12-13_15h33.40.021,game,2022.2.5,60.35640457063546,
,,,,,,,,,,,,4,0,4,0,,,,,,,,,,,,,,,,,,,,,,,,,,,,,,,,,,,,,1720.2433670000173,1720.2433670000173,0,5,3.2246269000170287,,,,,,751977,001,2023-12-13_15h33.40.021,game,2022.2.5,60.35640457063546,
,,,,,,,,,,,,5,0,5,0,,,,,,,,,,,,,,,,,,,,,,,,,,,,,,,,,,,,,1723.8898257999972,1723.8898257999972,0,7,2.866824099997757,,,,,,751977,001,2023-12-13_15h33.40.021,game,2022.2.5,60.35640457063546,
,,,,,,,,,,,,6,0,6,0,,,,,,,,,,,,,,,,,,,,,,,,,,,,,,,,,,,,,1727.1365704000054,1727.1365704000054,0,0,2.79134100000374,,,,,,751977,001,2023-12-13_15h33.40.021,game,2022.2.5,60.35640457063546,
,,,,,,,,,,,,7,0,7,0,,,,,,,,,,,,,,,,,,,,,,,,,,,,,,,,,,,,,1730.3506455000024,1730.3506455000024,0,6,5.0953170000284445,,,,,,751977,001,2023-12-13_15h33.40.021,game,2022.2.5,60.35640457063546,
,,,,,,,,,,,,8,0,8,0,,,,,,,,,,,,,,,,,,,,,,,,,,,,,,,,,,,,,1735.845425800013,1735.845425800013,0,7,6.431746500020381,,,,,,751977,001,2023-12-13_15h33.40.021,game,2022.2.5,60.35640457063546,
,,,,,,,,,,,,9,0,9,0,,,,,,,,,,,,,,,,,,,,,,,,,,,,,,,,,,,,,1742.6717828999972,1742.6717828999972,0,8,5.899172500008717,,,,,,751977,001,2023-12-13_15h33.40.021,game,2022.2.5,60.35640457063546,
,,,,,,,,,,,,10,0,10,0,,,,,,,,,,,,,,,,,,,,,,,,,,,,,,,,,,,,,1748.9661951000162,1748.9661951000162,0,7,15.118405500019435,,,,,,751977,001,2023-12-13_15h33.40.021,game,2022.2.5,60.35640457063546,
,,,,,,,,,,,,11,0,11,0,,,,,,,,,,,,,,,,,,,,,,,,,,,,,,,,,,,,,1764.4681705000112,1764.4681705000112,1,0,6.0017629000067245,,,,,,751977,001,2023-12-13_15h33.40.021,game,2022.2.5,60.35640457063546,
,,,,,,,,,,,,12,0,12,0,,,,,,,,,,,,,,,,,,,,,,,,,,,,,,,,,,,,,1770.8459715000063,1770.8459715000063,0,8,4.00947410002118,,,,,,751977,001,2023-12-13_15h33.40.021,game,2022.2.5,60.35640457063546,
,,,,,,,,,,,,13,0,13,0,,,,,,,,,,,,,,,,,,,,,,,,,,,,,,,,,,,,,1775.2250897000195,1775.2250897000195,0,0,6.711747099994682,,,,,,751977,001,2023-12-13_15h33.40.021,game,2022.2.5,60.35640457063546,
,,,,,,,,,,,,14,0,14,0,,,,,,,,,,,,,,,,,,,,,,,,,,,,,,,,,,,,,1782.3687280000013,1782.3687280000013,0,8,7.584923800022807,,,,,,751977,001,2023-12-13_15h33.40.021,game,2022.2.5,60.35640457063546,
,,,,,,,,,,,,15,0,15,0,,,,,,,,,,,,,,,,,,,,,,,,,,,,,,,,,,,,,1790.3275929000229,1790.3275929000229,0,0,3.3356024000095204,,,,,,751977,001,2023-12-13_15h33.40.021,game,2022.2.5,60.35640457063546,
,,,,,,,,,,,,16,0,16,0,,,,,,,,,,,,,,,,,,,,,,,,,,,,,,,,,,,,,1794.1073243000137,1794.1073243000137,0,5,4.235698100004811,,,,,,751977,001,2023-12-13_15h33.40.021,game,2022.2.5,60.35640457063546,
,,,,,,,,,,,,17,0,17,0,,,,,,,,,,,,,,,,,,,,,,,,,,,,,,,,,,,,,1798.7700709000055,1798.7700709000055,0,4,4.863570100016659,,,,,,751977,001,2023-12-13_15h33.40.021,game,2022.2.5,60.35640457063546,
,,,,,,,,,,,,18,0,18,0,,,,,,,,,,,,,,,,,,,,,,,,,,,,,,,,,,,,,1804.0316112000146,1804.0316112000146,0,6,13.862726899998961,,,,,,751977,001,2023-12-13_15h33.40.021,game,2022.2.5,60.35640457063546,
,,,,,,,,,,,,19,0,19,0,,,,,,,,,,,,,,,,,,,,,,,,,,,,,,,,,,,,,1818.2682751000102,1818.2682751000102,,6,2.0445715000096243,,,,,,751977,001,2023-12-13_15h33.40.021,game,2022.2.5,60.35640457063546,
,,,,,,,,,,,,,,,,,,,,,,,,,,,,,,,,,,,,,,,,,,,,,,,,,,,,,,,,,2882.7910152999975,2882.7910152999975,space,96.26970210002037,,751977,001,2023-12-13_15h33.40.021,game,2022.2.5,60.35640457063546,
,,,,,,,,,,,,,,,,,,,,,,,,,,,,,,2979.0849273000204,2979.0849273000204,space,1.2014885999960825,,,,,,,,,,,,,,,,,,,,,,,,,,,,,751977,001,2023-12-13_15h33.40.021,game,2022.2.5,60.35640457063546,
,,,,,,,,,,,,,,,,0,0,0,0,,,,,,,,,,,,,,,3,2980.317227499996,2980.317227499996,2982.331944800011,2983.331038000004,None,2983.331038000004,2983.331038000004,1,340.2127999870572,space,0.3402127999870572,2983.696898800001,2984.196010600019,,,,,,,,,,,,,,,751977,001,2023-12-13_15h33.40.021,game,2022.2.5,60.35640457063546,
,,,,,,,,,,,,,,,,1,0,1,0,,,,,,,,,,,,,,,3,2984.196010600019,2984.196010600019,2986.21124590002,2987.2099368000054,None,2987.2099368000054,2987.2099368000054,1,283.5979999799747,space,0.2835979999799747,2987.5097277000023,2988.009720000002,,,,,,,,,,,,,,,751977,001,2023-12-13_15h33.40.021,game,2022.2.5,60.35640457063546,
,,,,,,,,,,,,,,,,2,0,2,0,,,,,,,,,,,,,,,1,2988.009720000002,2988.009720000002,2988.009720000002,2989.0253551000205,None,2989.0253551000205,2989.0253551000205,1,349.2050000058953,space,0.34920500000589527,2989.3914174000092,2989.890828100004,,,,,,,,,,,,,,,751977,001,2023-12-13_15h33.40.021,game,2022.2.5,60.35640457063546,
,,,,,,,,,,,,,,,,3,0,3,0,,,,,,,,,,,,,,,4,2989.890828100004,2989.890828100004,2992.9053980000026,2993.904032899998,None,2993.904032899998,2993.904032899998,1,300.76440001721494,space,0.30076440001721494,2994.2205739000055,2994.7364694999997,,,,,,,,,,,,,,,751977,001,2023-12-13_15h33.40.021,game,2022.2.5,60.35640457063546,
,,,,,,,,,,,,,,,,4,0,4,0,,,,,,,,,,,,,,,1,2994.7364694999997,2994.7364694999997,2994.7364694999997,2995.736114600004,None,2995.736114600004,2995.736114600004,1,417.3315000080038,space,0.4173315000080038,2996.1688536000147,2996.6681055000226,,,,,,,,,,,,,,,751977,001,2023-12-13_15h33.40.021,game,2022.2.5,60.35640457063546,
,,,,,,,,,,,,,,,,5,0,5,0,,,,,,,,,,,,,,,1,2996.6681055000226,2996.6681055000226,2996.6681055000226,2997.6843171000073,None,2997.6843171000073,2997.6843171000073,1,357.5717000057921,space,0.3575717000057921,2998.066327800014,2998.567295100016,,,,,,,,,,,,,,,751977,001,2023-12-13_15h33.40.021,game,2022.2.5,60.35640457063546,
,,,,,,,,,,,,,,,,6,0,6,0,,,,,,,,,,,,,,,2,2998.567295100016,2998.567295100016,2999.581893399998,3000.5814451000188,None,3000.5814451000188,3000.5814451000188,1,272.7593000163324,space,0.2727593000163324,3000.881133000017,3001.39655830001,,,,,,,,,,,,,,,751977,001,2023-12-13_15h33.40.021,game,2022.2.5,60.35640457063546,
,,,,,,,,,,,,,,,,7,0,7,0,,,,,,,,,,,,,,,3,3001.39655830001,3001.39655830001,3003.411811400001,3004.410669100005,None,3004.410669100005,3004.410669100005,1,289.082299976144,space,0.289082299976144,3004.726959499996,3005.2271692000213,,,,,,,,,,,,,,,751977,001,2023-12-13_15h33.40.021,game,2022.2.5,60.35640457063546,
,,,,,,,,,,,,,,,,8,0,8,0,,,,,,,,,,,,,,,1,3005.2271692000213,3005.2271692000213,3005.2271692000213,3006.242151000013,None,3006.242151000013,3006.242151000013,1,303.2168000063393,space,0.3032168000063393,3006.57541390002,3007.0749679,,,,,,,,,,,,,,,751977,001,2023-12-13_15h33.40.021,game,2022.2.5,60.35640457063546,
,,,,,,,,,,,,,,,,9,0,9,0,,,,,,,,,,,,,,,3,3007.0749679,3007.0749679,3009.0896084000124,3010.0885221000062,None,3010.0885221000062,3010.0885221000062,1,281.05370001867414,space,0.28105370001867414,3010.3888255000056,3010.8881687000103,,,,,,,,,,,,,,,751977,001,2023-12-13_15h33.40.021,game,2022.2.5,60.35640457063546,
,,,,,,,,,,,,,,,,10,0,10,0,,,,,,,,,,,,,,,1,3010.8881687000103,3010.8881687000103,3010.8881687000103,3011.886988000013,None,3011.886988000013,3011.886988000013,1,319.82849998166785,space,0.31982849998166785,3012.2375256000087,3012.7537294000213,,,,,,,,,,,,,,,751977,001,2023-12-13_15h33.40.021,game,2022.2.5,60.35640457063546,
,,,,,,,,,,,,,,,,11,0,11,0,,,,,,,,,,,,,,,2,3012.7537294000213,3012.7537294000213,3013.769323500019,3014.768421500019,None,3014.768421500019,3014.768421500019,1,304.33070001890883,space,0.30433070001890883,3015.100534199999,3015.600586500019,,,,,,,,,,,,,,,751977,001,2023-12-13_15h33.40.021,game,2022.2.5,60.35640457063546,
,,,,,,,,,,,,,,,,12,0,12,0,,,,,,,,,,,,,,,3,3015.600586500019,3015.600586500019,3017.615288400004,3018.614304800023,None,3018.614304800023,3018.614304800023,1,259.3889000127092,space,0.2593889000127092,3018.8976613999985,3019.3965420000022,,,,,,,,,,,,,,,751977,001,2023-12-13_15h33.40.021,game,2022.2.5,60.35640457063546,
,,,,,,,,,,,,,,,,13,0,13,0,,,,,,,,,,,,,,,3,3019.3965420000022,3019.3965420000022,3021.41177950002,3022.410543500009,None,3022.410543500009,3022.410543500009,1,253.14459999208339,space,0.2531445999920834,3022.6940006000223,3023.1937455000007,,,,,,,,,,,,,,,751977,001,2023-12-13_15h33.40.021,game,2022.2.5,60.35640457063546,
,,,,,,,,,,,,,,,,14,0,14,0,,,,,,,,,,,,,,,3,3023.1937455000007,3023.1937455000007,3025.207993500022,3026.206693200016,None,3026.206693200016,3026.206693200016,1,279.7947999788448,space,0.2797947999788448,3026.5071907000092,3027.0060865000123,,,,,,,,,,,,,,,751977,001,2023-12-13_15h33.40.021,game,2022.2.5,60.35640457063546,
,,,,,,,,,,,,,,,,15,0,15,0,,,,,,,,,,,,,,,2,3027.0060865000123,3027.0060865000123,3028.0058418000117,3029.0048599000147,None,3029.0048599000147,3029.0048599000147,1,279.23050001845695,space,0.27923050001845695,3029.303990800021,3029.80429,,,,,,,,,,,,,,,751977,001,2023-12-13_15h33.40.021,game,2022.2.5,60.35640457063546,
,,,,,,,,,,,,,,,,16,0,16,0,,,,,,,,,,,,,,,3,3029.80429,3029.80429,3031.818641400023,3032.818100100005,None,3032.818100100005,3032.818100100005,1,257.9278000048362,space,0.25792780000483617,3033.1007246000227,3033.60011140001,,,,,,,,,,,,,,,751977,001,2023-12-13_15h33.40.021,game,2022.2.5,60.35640457063546,
,,,,,,,,,,,,,,,,17,0,17,0,,,,,,,,,,,,,,,4,3033.60011140001,3033.60011140001,3036.614264700009,3037.6132676000125,None,3037.6132676000125,3037.6132676000125,1,286.35000000940636,space,0.28635000000940636,3037.9292816000234,3038.429817600001,,,,,,,,,,,,,,,751977,001,2023-12-13_15h33.40.021,game,2022.2.5,60.35640457063546,
,,,,,,,,,,,,,,,,18,0,18,0,,,,,,,,,,,,,,,2,3038.429817600001,3038.429817600001,3039.4445452000073,3040.4441888,None,3040.4441888,3040.4441888,1,293.113199993968,space,0.293113199993968,3040.7602321000013,3041.2605819000164,,,,,,,,,,,,,,,751977,001,2023-12-13_15h33.40.021,game,2022.2.5,60.35640457063546,
,,,,,,,,,,,,,,,,,,,,,,,,,,,,,,,,,,,,,,,,,,,,,,,,3041.2605819000164,3041.2605819000164,space,1.265904200001387,,,,,,,,,,,751977,001,2023-12-13_15h33.40.021,game,2022.2.5,60.35640457063546,
,,,,,,,,,,,,,,,,,,,,0,0,0,0,,,,,,,,,,,,,,,,,,,,,,,,,,,,,3042.558361000003,3042.558361000003,0,3,3.8565572000225075,,,,,,751977,001,2023-12-13_15h33.40.021,game,2022.2.5,60.35640457063546,
,,,,,,,,,,,,,,,,,,,,1,0,1,0,,,,,,,,,,,,,,,,,,,,,,,,,,,,,3046.803546900017,3046.803546900017,0,1,3.645866000006208,,,,,,751977,001,2023-12-13_15h33.40.021,game,2022.2.5,60.35640457063546,
,,,,,,,,,,,,,,,,,,,,2,0,2,0,,,,,,,,,,,,,,,,,,,,,,,,,,,,,3050.8844664000208,3050.8844664000208,0,2,5.883280699985335,,,,,,751977,001,2023-12-13_15h33.40.021,game,2022.2.5,60.35640457063546,
,,,,,,,,,,,,,,,,,,,,3,0,3,0,,,,,,,,,,,,,,,,,,,,,,,,,,,,,3057.2274774000107,3057.2274774000107,0,2,1.7182444000209216,,,,,,751977,001,2023-12-13_15h33.40.021,game,2022.2.5,60.35640457063546,
,,,,,,,,,,,,,,,,,,,,4,0,4,0,,,,,,,,,,,,,,,,,,,,,,,,,,,,,3059.375142200006,3059.375142200006,0,5,1.7378819000150543,,,,,,751977,001,2023-12-13_15h33.40.021,game,2022.2.5,60.35640457063546,
,,,,,,,,,,,,,,,,,,,,5,0,5,0,,,,,,,,,,,,,,,,,,,,,,,,,,,,,3061.52319800001,3061.52319800001,0,7,5.517663000005996,,,,,,751977,001,2023-12-13_15h33.40.021,game,2022.2.5,60.35640457063546,
,,,,,,,,,,,,,,,,,,,,6,0,6,0,,,,,,,,,,,,,,,,,,,,,,,,,,,,,3067.4009569000045,3067.4009569000045,0,5,6.145716600003652,,,,,,751977,001,2023-12-13_15h33.40.021,game,2022.2.5,60.35640457063546,
,,,,,,,,,,,,,,,,,,,,7,0,7,0,,,,,,,,,,,,,,,,,,,,,,,,,,,,,3073.9618528000137,3073.9618528000137,0,3,4.666293599992059,,,,,,751977,001,2023-12-13_15h33.40.021,game,2022.2.5,60.35640457063546,
,,,,,,,,,,,,,,,,,,,,8,0,8,0,,,,,,,,,,,,,,,,,,,,,,,,,,,,,3079.0574105000123,3079.0574105000123,0,9,5.21240280001075,,,,,,751977,001,2023-12-13_15h33.40.021,game,2022.2.5,60.35640457063546,
,,,,,,,,,,,,,,,,,,,,9,0,9,0,,,,,,,,,,,,,,,,,,,,,,,,,,,,,3084.668492500001,3084.668492500001,1,7,4.113310300017474,,,,,,751977,001,2023-12-13_15h33.40.021,game,2022.2.5,60.35640457063546,
,,,,,,,,,,,,,,,,,,,,10,0,10,0,,,,,,,,,,,,,,,,,,,,,,,,,,,,,3089.164395,3089.164395,0,5,2.5903238999890164,,,,,,751977,001,2023-12-13_15h33.40.021,game,2022.2.5,60.35640457063546,
,,,,,,,,,,,,,,,,,,,,11,0,11,0,,,,,,,,,,,,,,,,,,,,,,,,,,,,,3092.1617948000203,3092.1617948000203,0,3,2.004627399990568,,,,,,751977,001,2023-12-13_15h33.40.021,game,2022.2.5,60.35640457063546,
,,,,,,,,,,,,,,,,,,,,12,0,12,0,,,,,,,,,,,,,,,,,,,,,,,,,,,,,3094.5423796999967,3094.5423796999967,1,3,8.237690300011309,,,,,,751977,001,2023-12-13_15h33.40.021,game,2022.2.5,60.35640457063546,
,,,,,,,,,,,,,,,,,,,,13,0,13,0,,,,,,,,,,,,,,,,,,,,,,,,,,,,,3103.200940700015,3103.200940700015,0,5,1.9012046999996528,,,,,,751977,001,2023-12-13_15h33.40.021,game,2022.2.5,60.35640457063546,
,,,,,,,,,,,,,,,,,,,,14,0,14,0,,,,,,,,,,,,,,,,,,,,,,,,,,,,,3105.4653539000137,3105.4653539000137,0,2,2.497581600007834,,,,,,751977,001,2023-12-13_15h33.40.021,game,2022.2.5,60.35640457063546,
,,,,,,,,,,,,,,,,,,,,15,0,15,0,,,,,,,,,,,,,,,,,,,,,,,,,,,,,3108.379663800006,3108.379663800006,0,8,2.9724332000187133,,,,,,751977,001,2023-12-13_15h33.40.021,game,2022.2.5,60.35640457063546,
,,,,,,,,,,,,,,,,,,,,16,0,16,0,,,,,,,,,,,,,,,,,,,,,,,,,,,,,3111.7767685000144,3111.7767685000144,1,8,6.763354299997445,,,,,,751977,001,2023-12-13_15h33.40.021,game,2022.2.5,60.35640457063546,
,,,,,,,,,,,,,,,,,,,,17,0,17,0,,,,,,,,,,,,,,,,,,,,,,,,,,,,,3118.8866988999944,3118.8866988999944,0,0,5.731159600021783,,,,,,751977,001,2023-12-13_15h33.40.021,game,2022.2.5,60.35640457063546,
,,,,,,,,,,,,,,,,,,,,18,0,18,0,,,,,,,,,,,,,,,,,,,,,,,,,,,,,3124.98081540002,3124.98081540002,1,4,7.986011000000872,,,,,,751977,001,2023-12-13_15h33.40.021,game,2022.2.5,60.35640457063546,
,,,,,,,,,,,,,,,,,,,,19,0,19,0,,,,,,,,,,,,,,,,,,,,,,,,,,,,,3133.3892206000164,3133.3892206000164,0,5,4.1795426000026055,,,,,,751977,001,2023-12-13_15h33.40.021,game,2022.2.5,60.35640457063546,
,,,,,,,,,,,,,,,,,,,,20,0,20,0,,,,,,,,,,,,,,,,,,,,,,,,,,,,,3138.0187860000005,3138.0187860000005,1,3,11.48963070003083,,,,,,751977,001,2023-12-13_15h33.40.021,game,2022.2.5,60.35640457063546,
,,,,,,,,,,,,,,,,,,,,21,0,21,0,,,,,,,,,,,,,,,,,,,,,,,,,,,,,3149.957450100017,3149.957450100017,,9,8.316516999999294,,,,,,751977,001,2023-12-13_15h33.40.021,game,2022.2.5,60.35640457063546,
,,,,,,,,,,,,,,,,,,,,,,,,,,,,,,,,,,,,,,,,,,,,,,,,,,,,,,,,,,,,,3162.5632254999946,,,,,,,
