trials.thisRepN,trials.thisTrialN,trials.thisN,trials.thisIndex,trials_3.thisRepN,trials_3.thisTrialN,trials_3.thisN,trials_3.thisIndex,trials_6.thisRepN,trials_6.thisTrialN,trials_6.thisN,trials_6.thisIndex,trials_5.thisRepN,trials_5.thisTrialN,trials_5.thisN,trials_5.thisIndex,trials_4.thisRepN,trials_4.thisTrialN,trials_4.thisN,trials_4.thisIndex,trials_2.thisRepN,trials_2.thisTrialN,trials_2.thisN,trials_2.thisIndex,text_2.started,key_resp.started,key_resp.keys,key_resp.rt,text_4.started,text_4.stopped,InstructionsText.started,InstrucKey.started,InstrucKey.keys,InstrucKey.rt,ISI,ISI_text.started,dontrespond.started,dontrespond.stopped,ISI_text.stopped,dontrespond.keys,Targetstim.started,Response.started,Accuracy,RTms,Response.keys,Response.rt,Feedback_text.started,Feedback_text.stopped,text_6.started,key_resp_2.started,key_resp_2.keys,key_resp_2.rt,key_resp_4.started,text_7.started,key_resp_4.keys,key_resp_4.rt,text_14.started,key_resp_7.started,key_resp_7.keys,key_resp_7.rt,text_13.started,key_resp_6.started,key_resp_6.keys,key_resp_6.rt,text_3.started,participant,session,date,expName,psychopyVersion,frameRate,
,,,,,,,,,,,,,,,,,,,,,,,,40.26776269997936,40.26776269997936,space,1726.061440200021,,,,,,,,,,,,,,,,,,,,,,,,,,,,,,,,,,,,,,athos,001,2023-12-18_16h31.44.206,game,2022.2.5,59.99289683581633,
,,,,,,,,,,,,,,,,,,,,,,,,,,,,1766.3577847999986,1796.3728282999946,1796.3728282999946,1796.3728282999946,space,7.153692999971099,,,,,,,,,,,,,,,,,,,,,,,,,,,,,,,,athos,001,2023-12-18_16h31.44.206,game,2022.2.5,59.99289683581633,
0,0,0,0,,,,,,,,,,,,,,,,,,,,,,,,,,,,,,,2,1803.5564298999961,1803.5564298999961,1804.5589833999984,1805.5561458999873,None,1805.5561458999873,1805.5561458999873,1,442.46049999492243,space,0.44246049999492243,1806.0224001999595,1806.5220679999911,,,,,,,,,,,,,,,,,,athos,001,2023-12-18_16h31.44.206,game,2022.2.5,59.99289683581633,
1,0,1,0,,,,,,,,,,,,,,,,,,,,,,,,,,,,,,,2,1806.5220679999911,1806.5220679999911,1807.5224168999703,1808.5223533000099,None,1808.5223533000099,1808.5223533000099,1,348.3255000319332,space,0.3483255000319332,1808.9037553999806,1809.4059604000067,,,,,,,,,,,,,,,,,,athos,001,2023-12-18_16h31.44.206,game,2022.2.5,59.99289683581633,
2,0,2,0,,,,,,,,,,,,,,,,,,,,,,,,,,,,,,,3,1809.4059604000067,1809.4059604000067,1811.4053470999934,1812.4051678999676,None,1812.4051678999676,1812.4051678999676,1,321.7284000129439,space,0.3217284000129439,1812.7696385000017,1813.2722537000082,,,,,,,,,,,,,,,,,,athos,001,2023-12-18_16h31.44.206,game,2022.2.5,59.99289683581633,
3,0,3,0,,,,,,,,,,,,,,,,,,,,,,,,,,,,,,,2,1813.2722537000082,1813.2722537000082,1814.2717461999855,1815.271825600008,None,1815.271825600008,1815.271825600008,1,318.8646000344306,space,0.3188646000344306,1815.6046640999848,1816.104758100002,,,,,,,,,,,,,,,,,,athos,001,2023-12-18_16h31.44.206,game,2022.2.5,59.99289683581633,
4,0,4,0,,,,,,,,,,,,,,,,,,,,,,,,,,,,,,,4,1816.104758100002,1816.104758100002,1819.1047006999725,1820.1049226999748,None,1820.1049226999748,1820.1049226999748,1,318.2177999988198,space,0.31821779999881983,1820.4378905000049,1820.9383345000097,,,,,,,,,,,,,,,,,,athos,001,2023-12-18_16h31.44.206,game,2022.2.5,59.99289683581633,
5,0,5,0,,,,,,,,,,,,,,,,,,,,,,,,,,,,,,,4,1820.9383345000097,1820.9383345000097,1823.9383082999848,1824.9377742999932,None,1824.9377742999932,1824.9377742999932,1,324.5215999777429,space,0.3245215999777429,1825.302266499959,1825.8047021999955,,,,,,,,,,,,,,,,,,athos,001,2023-12-18_16h31.44.206,game,2022.2.5,59.99289683581633,
6,0,6,0,,,,,,,,,,,,,,,,,,,,,,,,,,,,,,,4,1825.8047021999955,1825.8047021999955,1828.8040974999894,,None,,,0,nan,None,,1834.570852499979,1835.0704216000158,,,,,,,,,,,,,,,,,,athos,001,2023-12-18_16h31.44.206,game,2022.2.5,59.99289683581633,
7,0,7,0,,,,,,,,,,,,,,,,,,,,,,,,,,,,,,,1,1835.0704216000158,1835.0704216000158,1835.0704216000158,1836.070693799993,None,1836.070693799993,1836.070693799993,1,423.9833999890834,space,0.4239833999890834,1836.5209651999758,1837.0208874999662,,,,,,,,,,,,,,,,,,athos,001,2023-12-18_16h31.44.206,game,2022.2.5,59.99289683581633,
8,0,8,0,,,,,,,,,,,,,,,,,,,,,,,,,,,,,,,2,1837.0208874999662,1837.0208874999662,1838.0217342000105,1839.0210003000102,None,1839.0210003000102,1839.0210003000102,1,433.52310004411265,space,0.43352310004411265,1839.470048099989,1839.9725166999851,,,,,,,,,,,,,,,,,,athos,001,2023-12-18_16h31.44.206,game,2022.2.5,59.99289683581633,
9,0,9,0,,,,,,,,,,,,,,,,,,,,,,,,,,,,,,,3,1839.9725166999851,1839.9725166999851,1841.9721080999589,1842.9874419000116,None,1842.9874419000116,1842.9874419000116,1,355.8603000128642,space,0.3558603000128642,1843.3846156999934,1843.8874437999912,,,,,,,,,,,,,,,,,,athos,001,2023-12-18_16h31.44.206,game,2022.2.5,59.99289683581633,
10,0,10,0,,,,,,,,,,,,,,,,,,,,,,,,,,,,,,,1,1843.8874437999912,1843.8874437999912,1843.8874437999912,1844.886760799971,None,1844.886760799971,1844.886760799971,1,384.64180001756176,space,0.38464180001756176,1845.3019861999783,1845.8034484999953,,,,,,,,,,,,,,,,,,athos,001,2023-12-18_16h31.44.206,game,2022.2.5,59.99289683581633,
11,0,11,0,,,,,,,,,,,,,,,,,,,,,,,,,,,,,,,1,1845.8034484999953,1845.8034484999953,1845.8034484999953,1846.8034947999986,None,1846.8034947999986,1846.8034947999986,1,331.7745000240393,space,0.3317745000240393,1847.1679468000075,1847.6699665999622,,,,,,,,,,,,,,,,,,athos,001,2023-12-18_16h31.44.206,game,2022.2.5,59.99289683581633,
12,0,12,0,,,,,,,,,,,,,,,,,,,,,,,,,,,,,,,3,1847.6699665999622,1847.6699665999622,1849.6694873999804,1850.6697230999707,None,1850.6697230999707,1850.6697230999707,1,360.9059000154957,space,0.3609059000154957,1851.0537952000159,1851.5535352000152,,,,,,,,,,,,,,,,,,athos,001,2023-12-18_16h31.44.206,game,2022.2.5,59.99289683581633,
13,0,13,0,,,,,,,,,,,,,,,,,,,,,,,,,,,,,,,1,1851.5535352000152,1851.5535352000152,1851.5535352000152,1852.5534284000169,None,1852.5534284000169,1852.5534284000169,1,398.25359999667853,space,0.39825359999667853,1852.9848809000105,1853.4861395999906,,,,,,,,,,,,,,,,,,athos,001,2023-12-18_16h31.44.206,game,2022.2.5,59.99289683581633,
14,0,14,0,,,,,,,,,,,,,,,,,,,,,,,,,,,,,,,2,1853.4861395999906,1853.4861395999906,1854.4864392000018,1855.486296899966,None,1855.486296899966,1855.486296899966,1,296.6799000278115,space,0.2966799000278115,1855.8174557999591,1856.3198968999786,,,,,,,,,,,,,,,,,,athos,001,2023-12-18_16h31.44.206,game,2022.2.5,59.99289683581633,
15,0,15,0,,,,,,,,,,,,,,,,,,,,,,,,,,,,,,,2,1856.3198968999786,1856.3198968999786,1857.3194072999759,1858.3190306999604,None,1858.3190306999604,1858.3190306999604,1,319.70480002928525,space,0.31970480002928525,1858.6671554999775,1859.1695029999828,,,,,,,,,,,,,,,,,,athos,001,2023-12-18_16h31.44.206,game,2022.2.5,59.99289683581633,
16,0,16,0,,,,,,,,,,,,,,,,,,,,,,,,,,,,,,,4,1859.1695029999828,1859.1695029999828,1862.1693024999695,1863.168925200007,None,1863.168925200007,1863.168925200007,1,327.5619000196457,space,0.3275619000196457,1863.5336251999834,1864.03556379996,,,,,,,,,,,,,,,,,,athos,001,2023-12-18_16h31.44.206,game,2022.2.5,59.99289683581633,
17,0,17,0,,,,,,,,,,,,,,,,,,,,,,,,,,,,,,,4,1864.03556379996,1864.03556379996,1867.0361100999871,1868.035754600016,None,1868.035754600016,1868.035754600016,1,387.6711000339128,space,0.3876711000339128,1868.4535297999973,1868.9703731999616,,,,,,,,,,,,,,,,,,athos,001,2023-12-18_16h31.44.206,game,2022.2.5,59.99289683581633,
18,0,18,0,,,,,,,,,,,,,,,,,,,,,,,,,,,,,,,4,1868.9703731999616,1868.9703731999616,1871.9708393999608,1872.9702859999961,None,1872.9702859999961,1872.9702859999961,1,324.7346999705769,space,0.3247346999705769,1873.3194640000002,1873.8192752999603,,,,,,,,,,,,,,,,,,athos,001,2023-12-18_16h31.44.206,game,2022.2.5,59.99289683581633,
19,0,19,0,,,,,,,,,,,,,,,,,,,,,,,,,,,,,,,3,1873.8192752999603,1873.8192752999603,1875.8191506000003,1876.8187993000029,None,1876.8187993000029,1876.8187993000029,1,340.55540000554174,space,0.34055540000554174,1877.1879604000133,1877.7019356999663,,,,,,,,,,,,,,,,,,athos,001,2023-12-18_16h31.44.206,game,2022.2.5,59.99289683581633,
20,0,20,0,,,,,,,,,,,,,,,,,,,,,,,,,,,,,,,1,1877.7019356999663,1877.7019356999663,1877.7019356999663,1878.7014722999884,None,1878.7014722999884,1878.7014722999884,1,489.36020000837743,space,0.48936020000837743,1879.233400499972,1879.7349747999688,,,,,,,,,,,,,,,,,,athos,001,2023-12-18_16h31.44.206,game,2022.2.5,59.99289683581633,
21,0,21,0,,,,,,,,,,,,,,,,,,,,,,,,,,,,,,,1,1879.7349747999688,1879.7349747999688,1879.7349747999688,1880.7351141999825,None,1880.7351141999825,1880.7351141999825,1,343.7262999941595,space,0.3437262999941595,1881.1164400000125,1881.6182158999727,,,,,,,,,,,,,,,,,,athos,001,2023-12-18_16h31.44.206,game,2022.2.5,59.99289683581633,
22,0,22,0,,,,,,,,,,,,,,,,,,,,,,,,,,,,,,,2,1881.6182158999727,1881.6182158999727,1882.6178586999886,1883.6180506999954,None,1883.6180506999954,1883.6180506999954,1,317.1889999648556,space,0.3171889999648556,1883.9516184999957,1884.4513319999678,,,,,,,,,,,,,,,,,,athos,001,2023-12-18_16h31.44.206,game,2022.2.5,59.99289683581633,
23,0,23,0,,,,,,,,,,,,,,,,,,,,,,,,,,,,,,,2,1884.4513319999678,1884.4513319999678,1885.4511476999614,1886.4513415999827,None,1886.4513415999827,1886.4513415999827,1,316.50479999370873,space,0.31650479999370873,1886.784465099976,1887.2844934000168,,,,,,,,,,,,,,,,,,athos,001,2023-12-18_16h31.44.206,game,2022.2.5,59.99289683581633,
24,0,24,0,,,,,,,,,,,,,,,,,,,,,,,,,,,,,,,4,1887.2844934000168,1887.2844934000168,1890.2843764999998,1891.2846485999762,None,1891.2846485999762,1891.2846485999762,1,338.98040000349283,space,0.33898040000349283,1891.6658006999642,1892.1679036999703,,,,,,,,,,,,,,,,,,athos,001,2023-12-18_16h31.44.206,game,2022.2.5,59.99289683581633,
25,0,25,0,,,,,,,,,,,,,,,,,,,,,,,,,,,,,,,1,1892.1679036999703,1892.1679036999703,1892.1679036999703,1893.1674788999953,None,1893.1674788999953,1893.1674788999953,1,385.0397999631241,space,0.3850397999631241,1893.5680695999763,1894.0681366999634,,,,,,,,,,,,,,,,,,athos,001,2023-12-18_16h31.44.206,game,2022.2.5,59.99289683581633,
26,0,26,0,,,,,,,,,,,,,,,,,,,,,,,,,,,,,,,2,1894.0681366999634,1894.0681366999634,1895.0672639000113,1896.0681088999845,None,1896.0681088999845,1896.0681088999845,1,315.4135000077076,space,0.3154135000077076,1896.4005821999745,1896.9004957000143,,,,,,,,,,,,,,,,,,athos,001,2023-12-18_16h31.44.206,game,2022.2.5,59.99289683581633,
27,0,27,0,,,,,,,,,,,,,,,,,,,,,,,,,,,,,,,4,1896.9004957000143,1896.9004957000143,1899.9005660999683,1900.9002422000049,None,1900.9002422000049,1900.9002422000049,1,354.81199994683266,space,0.35481199994683266,1901.298149099981,1901.8002743999823,,,,,,,,,,,,,,,,,,athos,001,2023-12-18_16h31.44.206,game,2022.2.5,59.99289683581633,
28,0,28,0,,,,,,,,,,,,,,,,,,,,,,,,,,,,,,,1,1901.8002743999823,1901.8002743999823,1901.8002743999823,1902.8002444999875,None,1902.8002444999875,1902.8002444999875,1,422.75209998479113,space,0.42275209998479113,1903.250731899985,1903.7506480999873,,,,,,,,,,,,,,,,,,athos,001,2023-12-18_16h31.44.206,game,2022.2.5,59.99289683581633,
29,0,29,0,,,,,,,,,,,,,,,,,,,,,,,,,,,,,,,1,1903.7506480999873,1903.7506480999873,1903.7506480999873,1904.7508826999692,None,1904.7508826999692,1904.7508826999692,1,352.33229998266324,space,0.35233229998266324,1905.132765699993,1905.6340913999593,,,,,,,,,,,,,,,,,,athos,001,2023-12-18_16h31.44.206,game,2022.2.5,59.99289683581633,
30,0,30,0,,,,,,,,,,,,,,,,,,,,,,,,,,,,,,,2,1905.6340913999593,1905.6340913999593,1906.6335341999657,1907.6332633999991,None,1907.6332633999991,1907.6332633999991,1,342.16250001918525,space,0.34216250001918525,1908.0014475999633,1908.4998695999966,,,,,,,,,,,,,,,,,,athos,001,2023-12-18_16h31.44.206,game,2022.2.5,59.99289683581633,
31,0,31,0,,,,,,,,,,,,,,,,,,,,,,,,,,,,,,,4,1908.4998695999966,1908.4998695999966,1911.4997544999933,1912.4998025000095,None,1912.4998025000095,1912.4998025000095,1,333.2115999655798,space,0.3332115999655798,1912.8504266999662,1913.350419299968,,,,,,,,,,,,,,,,,,athos,001,2023-12-18_16h31.44.206,game,2022.2.5,59.99289683581633,
32,0,32,0,,,,,,,,,,,,,,,,,,,,,,,,,,,,,,,4,1913.350419299968,1913.350419299968,1916.3502340000123,1917.3497695999686,None,1917.3497695999686,1917.3497695999686,1,330.625600006897,space,0.330625600006897,1917.7138153999695,1918.2163460999727,,,,,,,,,,,,,,,,,,athos,001,2023-12-18_16h31.44.206,game,2022.2.5,59.99289683581633,
33,0,33,0,,,,,,,,,,,,,,,,,,,,,,,,,,,,,,,3,1918.2163460999727,1918.2163460999727,1920.2160163999652,1921.2158987000003,None,1921.2158987000003,1921.2158987000003,1,335.58429998811334,space,0.33558429998811334,1921.5802481999854,1922.0826347999973,,,,,,,,,,,,,,,,,,athos,001,2023-12-18_16h31.44.206,game,2022.2.5,59.99289683581633,
34,0,34,0,,,,,,,,,,,,,,,,,,,,,,,,,,,,,,,2,1922.0826347999973,1922.0826347999973,1923.0825696999673,1924.0829015999916,None,1924.0829015999916,1924.0829015999916,1,308.552399976179,space,0.308552399976179,1924.4157368000015,1924.9155842000037,,,,,,,,,,,,,,,,,,athos,001,2023-12-18_16h31.44.206,game,2022.2.5,59.99289683581633,
35,0,35,0,,,,,,,,,,,,,,,,,,,,,,,,,,,,,,,1,1924.9155842000037,1924.9155842000037,1924.9155842000037,1925.9156526000006,None,1925.9156526000006,1925.9156526000006,1,323.9011999685317,space,0.32390119996853173,1926.2817917999928,1926.7835760000162,,,,,,,,,,,,,,,,,,athos,001,2023-12-18_16h31.44.206,game,2022.2.5,59.99289683581633,
36,0,36,0,,,,,,,,,,,,,,,,,,,,,,,,,,,,,,,3,1926.7835760000162,1926.7835760000162,1928.7825579000055,1929.7820534000057,None,1929.7820534000057,1929.7820534000057,1,344.9816000065766,space,0.3449816000065766,1930.1640301999869,1930.6664362999727,,,,,,,,,,,,,,,,,,athos,001,2023-12-18_16h31.44.206,game,2022.2.5,59.99289683581633,
37,0,37,0,,,,,,,,,,,,,,,,,,,,,,,,,,,,,,,1,1930.6664362999727,1930.6664362999727,1930.6664362999727,1931.6655865999637,None,1931.6655865999637,1931.6655865999637,1,334.10119998734444,space,0.33410119998734444,1932.0172019000165,1932.5320878999773,,,,,,,,,,,,,,,,,,athos,001,2023-12-18_16h31.44.206,game,2022.2.5,59.99289683581633,
38,0,38,0,,,,,,,,,,,,,,,,,,,,,,,,,,,,,,,4,1932.5320878999773,1932.5320878999773,1935.5323891000007,1936.531928899989,None,1936.531928899989,1936.531928899989,1,323.31250002607703,space,0.32331250002607703,1936.8975397999748,1937.3982856000075,,,,,,,,,,,,,,,,,,athos,001,2023-12-18_16h31.44.206,game,2022.2.5,59.99289683581633,
39,0,39,0,,,,,,,,,,,,,,,,,,,,,,,,,,,,,,,2,1937.3982856000075,1937.3982856000075,1938.3981196999666,1939.398509599967,None,1939.398509599967,1939.398509599967,1,353.4823000081815,space,0.3534823000081815,1939.7959160999744,1940.2980320999632,,,,,,,,,,,,,,,,,,athos,001,2023-12-18_16h31.44.206,game,2022.2.5,59.99289683581633,
40,0,40,0,,,,,,,,,,,,,,,,,,,,,,,,,,,,,,,4,1940.2980320999632,1940.2980320999632,1943.2978111999691,1944.298057899985,None,1944.298057899985,1944.298057899985,1,333.90330005204305,space,0.33390330005204305,1944.6625958000077,1945.164903900004,,,,,,,,,,,,,,,,,,athos,001,2023-12-18_16h31.44.206,game,2022.2.5,59.99289683581633,
41,0,41,0,,,,,,,,,,,,,,,,,,,,,,,,,,,,,,,2,1945.164903900004,1945.164903900004,1946.1650810000137,1947.1657154000131,None,1947.1657154000131,1947.1657154000131,1,410.005200013984,space,0.410005200013984,1947.5977464999887,1948.0983298000065,,,,,,,,,,,,,,,,,,athos,001,2023-12-18_16h31.44.206,game,2022.2.5,59.99289683581633,
42,0,42,0,,,,,,,,,,,,,,,,,,,,,,,,,,,,,,,3,1948.0983298000065,1948.0983298000065,1950.0975667999592,1951.0974638999905,None,1951.0974638999905,1951.0974638999905,1,358.7582999607548,space,0.3587582999607548,1951.4815422999673,1951.9813991999836,,,,,,,,,,,,,,,,,,athos,001,2023-12-18_16h31.44.206,game,2022.2.5,59.99289683581633,
43,0,43,0,,,,,,,,,,,,,,,,,,,,,,,,,,,,,,,4,1951.9813991999836,1951.9813991999836,1954.9818418999785,1955.981200099981,None,1955.981200099981,1955.981200099981,1,369.89259999245405,space,0.36989259999245405,1956.378767999995,1956.8809461999917,,,,,,,,,,,,,,,,,,athos,001,2023-12-18_16h31.44.206,game,2022.2.5,59.99289683581633,
,,,,,,,,,,,,,,,,,,,,,,,,,,,,,,,,,,,,,,,,,,,,,,,,1956.8809461999917,1956.8809461999917,space,6.678210499987472,,,,,,,,,,,,,,athos,001,2023-12-18_16h31.44.206,game,2022.2.5,59.99289683581633,
,,,,0,0,0,0,,,,,,,,,,,,,,,,,,,,,,,,,,,,,,,,,,,,,,,,,,,,,1963.5948426999967,1963.5948426999967,num_7,1.4856128999963403,,,,,,,,,,athos,001,2023-12-18_16h31.44.206,game,2022.2.5,59.99289683581633,
,,,,1,0,1,0,,,,,,,,,,,,,,,,,,,,,,,,,,,,,,,,,,,,,,,,,,,,,1965.4455589000136,1965.4455589000136,num_8,1.9546518999850377,,,,,,,,,,athos,001,2023-12-18_16h31.44.206,game,2022.2.5,59.99289683581633,
,,,,2,0,2,0,,,,,,,,,,,,,,,,,,,,,,,,,,,,,,,,,,,,,,,,,,,,,1967.7623536000028,1967.7623536000028,num_8,2.0051810999866575,,,,,,,,,,athos,001,2023-12-18_16h31.44.206,game,2022.2.5,59.99289683581633,
,,,,3,0,3,0,,,,,,,,,,,,,,,,,,,,,,,,,,,,,,,,,,,,,,,,,,,,,1970.128601000004,1970.128601000004,num_1,2.2873561999876983,,,,,,,,,,athos,001,2023-12-18_16h31.44.206,game,2022.2.5,59.99289683581633,
,,,,4,0,4,0,,,,,,,,,,,,,,,,,,,,,,,,,,,,,,,,,,,,,,,,,,,,,1972.7610110999667,1972.7610110999667,num_5,2.7827334000030532,,,,,,,,,,athos,001,2023-12-18_16h31.44.206,game,2022.2.5,59.99289683581633,
,,,,5,0,5,0,,,,,,,,,,,,,,,,,,,,,,,,,,,,,,,,,,,,,,,,,,,,,1975.9451908000046,1975.9451908000046,num_2,3.2468149000196718,,,,,,,,,,athos,001,2023-12-18_16h31.44.206,game,2022.2.5,59.99289683581633,
,,,,6,0,6,0,,,,,,,,,,,,,,,,,,,,,,,,,,,,,,,,,,,,,,,,,,,,,1979.5781033000094,1979.5781033000094,num_6,1.5097107000183314,,,,,,,,,,athos,001,2023-12-18_16h31.44.206,game,2022.2.5,59.99289683581633,
,,,,7,0,7,0,,,,,,,,,,,,,,,,,,,,,,,,,,,,,,,,,,,,,,,,,,,,,1981.478378699976,1981.478378699976,num_2,1.6809358000173233,,,,,,,,,,athos,001,2023-12-18_16h31.44.206,game,2022.2.5,59.99289683581633,
,,,,8,0,8,0,,,,,,,,,,,,,,,,,,,,,,,,,,,,,,,,,,,,,,,,,,,,,1983.5442777000135,1983.5442777000135,num_8,2.711688600014895,,,,,,,,,,athos,001,2023-12-18_16h31.44.206,game,2022.2.5,59.99289683581633,
,,,,9,0,9,0,,,,,,,,,,,,,,,,,,,,,,,,,,,,,,,,,,,,,,,,,,,,,1986.5942896999768,1986.5942896999768,num_2,7.845817699970212,,,,,,,,,,athos,001,2023-12-18_16h31.44.206,game,2022.2.5,59.99289683581633,
,,,,10,0,10,0,,,,,,,,,,,,,,,,,,,,,,,,,,,,,,,,,,,,,,,,,,,,,1994.7771154000075,1994.7771154000075,num_1,1.8631355999968946,,,,,,,,,,athos,001,2023-12-18_16h31.44.206,game,2022.2.5,59.99289683581633,
,,,,11,0,11,0,,,,,,,,,,,,,,,,,,,,,,,,,,,,,,,,,,,,,,,,,,,,,1997.0099546000129,1997.0099546000129,num_8,3.8775327000184916,,,,,,,,,,athos,001,2023-12-18_16h31.44.206,game,2022.2.5,59.99289683581633,
,,,,12,0,12,0,,,,,,,,,,,,,,,,,,,,,,,,,,,,,,,,,,,,,,,,,,,,,2001.260135199991,2001.260135199991,num_0,1.229594599979464,,,,,,,,,,athos,001,2023-12-18_16h31.44.206,game,2022.2.5,59.99289683581633,
,,,,13,0,13,0,,,,,,,,,,,,,,,,,,,,,,,,,,,,,,,,,,,,,,,,,,,,,2002.860447300016,2002.860447300016,num_7,2.0035808000247926,,,,,,,,,,athos,001,2023-12-18_16h31.44.206,game,2022.2.5,59.99289683581633,
,,,,14,0,14,0,,,,,,,,,,,,,,,,,,,,,,,,,,,,,,,,,,,,,,,,,,,,,2005.2265175000066,2005.2265175000066,num_6,1.8771881999564357,,,,,,,,,,athos,001,2023-12-18_16h31.44.206,game,2022.2.5,59.99289683581633,
,,,,15,0,15,0,,,,,,,,,,,,,,,,,,,,,,,,,,,,,,,,,,,,,,,,,,,,,2007.4436892999802,2007.4436892999802,num_9,1.5161682000034489,,,,,,,,,,athos,001,2023-12-18_16h31.44.206,game,2022.2.5,59.99289683581633,
,,,,16,0,16,0,,,,,,,,,,,,,,,,,,,,,,,,,,,,,,,,,,,,,,,,,,,,,2009.3430645999615,2009.3430645999615,num_5,2.2645590000320226,,,,,,,,,,athos,001,2023-12-18_16h31.44.206,game,2022.2.5,59.99289683581633,
,,,,17,0,17,0,,,,,,,,,,,,,,,,,,,,,,,,,,,,,,,,,,,,,,,,,,,,,2011.9759254999808,2011.9759254999808,num_8,5.799677899980452,,,,,,,,,,athos,001,2023-12-18_16h31.44.206,game,2022.2.5,59.99289683581633,
,,,,18,0,18,0,,,,,,,,,,,,,,,,,,,,,,,,,,,,,,,,,,,,,,,,,,,,,2018.1428936999873,2018.1428936999873,num_0,1.7292606999981217,,,,,,,,,,athos,001,2023-12-18_16h31.44.206,game,2022.2.5,59.99289683581633,
,,,,19,0,19,0,,,,,,,,,,,,,,,,,,,,,,,,,,,,,,,,,,,,,,,,,,,,,2020.2425582999713,2020.2425582999713,num_5,2.6456726000178605,,,,,,,,,,athos,001,2023-12-18_16h31.44.206,game,2022.2.5,59.99289683581633,
,,,,20,0,20,0,,,,,,,,,,,,,,,,,,,,,,,,,,,,,,,,,,,,,,,,,,,,,2023.2589019999723,2023.2589019999723,num_9,1.9012719999882393,,,,,,,,,,athos,001,2023-12-18_16h31.44.206,game,2022.2.5,59.99289683581633,
,,,,21,0,21,0,,,,,,,,,,,,,,,,,,,,,,,,,,,,,,,,,,,,,,,,,,,,,2025.5423982999637,2025.5423982999637,num_2,2.3469169000163674,,,,,,,,,,athos,001,2023-12-18_16h31.44.206,game,2022.2.5,59.99289683581633,
,,,,22,0,22,0,,,,,,,,,,,,,,,,,,,,,,,,,,,,,,,,,,,,,,,,,,,,,2028.2754060999723,2028.2754060999723,num_6,4.564603400009219,,,,,,,,,,athos,001,2023-12-18_16h31.44.206,game,2022.2.5,59.99289683581633,
,,,,23,0,23,0,,,,,,,,,,,,,,,,,,,,,,,,,,,,,,,,,,,,,,,,,,,,,2033.1839893999859,2033.1839893999859,num_0,1.2728731000097468,,,,,,,,,,athos,001,2023-12-18_16h31.44.206,game,2022.2.5,59.99289683581633,
,,,,24,0,24,0,,,,,,,,,,,,,,,,,,,,,,,,,,,,,,,,,,,,,,,,,,,,,2034.8417509999708,2034.8417509999708,num_9,1.1105844000121579,,,,,,,,,,athos,001,2023-12-18_16h31.44.206,game,2022.2.5,59.99289683581633,
,,,,25,0,25,0,,,,,,,,,,,,,,,,,,,,,,,,,,,,,,,,,,,,,,,,,,,,,2036.3416751999757,2036.3416751999757,num_4,11.154209300002549,,,,,,,,,,athos,001,2023-12-18_16h31.44.206,game,2022.2.5,59.99289683581633,
,,,,26,0,26,0,,,,,,,,,,,,,,,,,,,,,,,,,,,,,,,,,,,,,,,,,,,,,2047.858800099988,2047.858800099988,num_9,2.533445800014306,,,,,,,,,,athos,001,2023-12-18_16h31.44.206,game,2022.2.5,59.99289683581633,
,,,,27,0,27,0,,,,,,,,,,,,,,,,,,,,,,,,,,,,,,,,,,,,,,,,,,,,,2050.7409611999756,2050.7409611999756,num_2,2.163492999970913,,,,,,,,,,athos,001,2023-12-18_16h31.44.206,game,2022.2.5,59.99289683581633,
,,,,28,0,28,0,,,,,,,,,,,,,,,,,,,,,,,,,,,,,,,,,,,,,,,,,,,,,2053.2572837999905,2053.2572837999905,num_2,3.2786707999766804,,,,,,,,,,athos,001,2023-12-18_16h31.44.206,game,2022.2.5,59.99289683581633,
,,,,29,0,29,0,,,,,,,,,,,,,,,,,,,,,,,,,,,,,,,,,,,,,,,,,,,,,2056.87379350001,2056.87379350001,num_4,5.806186100002378,,,,,,,,,,athos,001,2023-12-18_16h31.44.206,game,2022.2.5,59.99289683581633,
,,,,30,0,30,0,,,,,,,,,,,,,,,,,,,,,,,,,,,,,,,,,,,,,,,,,,,,,2063.0399558999925,2063.0399558999925,num_7,1.6642451000516303,,,,,,,,,,athos,001,2023-12-18_16h31.44.206,game,2022.2.5,59.99289683581633,
,,,,31,0,31,0,,,,,,,,,,,,,,,,,,,,,,,,,,,,,,,,,,,,,,,,,,,,,2065.0728911999613,2065.0728911999613,num_6,3.6790409000241198,,,,,,,,,,athos,001,2023-12-18_16h31.44.206,game,2022.2.5,59.99289683581633,
,,,,32,0,32,0,,,,,,,,,,,,,,,,,,,,,,,,,,,,,,,,,,,,,,,,,,,,,2069.1236912999884,2069.1236912999884,num_1,1.3648311999859288,,,,,,,,,,athos,001,2023-12-18_16h31.44.206,game,2022.2.5,59.99289683581633,
,,,,33,0,33,0,,,,,,,,,,,,,,,,,,,,,,,,,,,,,,,,,,,,,,,,,,,,,2070.839953299961,2070.839953299961,num_4,1.7121244000154547,,,,,,,,,,athos,001,2023-12-18_16h31.44.206,game,2022.2.5,59.99289683581633,
,,,,34,0,34,0,,,,,,,,,,,,,,,,,,,,,,,,,,,,,,,,,,,,,,,,,,,,,2072.906484999985,2072.906484999985,num_6,2.3655419999849983,,,,,,,,,,athos,001,2023-12-18_16h31.44.206,game,2022.2.5,59.99289683581633,
,,,,35,0,35,0,,,,,,,,,,,,,,,,,,,,,,,,,,,,,,,,,,,,,,,,,,,,,2075.6228844000143,2075.6228844000143,num_8,1.8732049000100233,,,,,,,,,,athos,001,2023-12-18_16h31.44.206,game,2022.2.5,59.99289683581633,
,,,,36,0,36,0,,,,,,,,,,,,,,,,,,,,,,,,,,,,,,,,,,,,,,,,,,,,,2077.8730431000004,2077.8730431000004,num_6,1.7111713000340387,,,,,,,,,,athos,001,2023-12-18_16h31.44.206,game,2022.2.5,59.99289683581633,
,,,,37,0,37,0,,,,,,,,,,,,,,,,,,,,,,,,,,,,,,,,,,,,,,,,,,,,,2079.9227016000077,2079.9227016000077,num_5,4.686145400046371,,,,,,,,,,athos,001,2023-12-18_16h31.44.206,game,2022.2.5,59.99289683581633,
,,,,38,0,38,0,,,,,,,,,,,,,,,,,,,,,,,,,,,,,,,,,,,,,,,,,,,,,2085.038734300004,2085.038734300004,num_1,4.242285999993328,,,,,,,,,,athos,001,2023-12-18_16h31.44.206,game,2022.2.5,59.99289683581633,
,,,,39,0,39,0,,,,,,,,,,,,,,,,,,,,,,,,,,,,,,,,,,,,,,,,,,,,,2089.6558672999963,2089.6558672999963,num_1,1.1850937000126578,,,,,,,,,,athos,001,2023-12-18_16h31.44.206,game,2022.2.5,59.99289683581633,
,,,,40,0,40,0,,,,,,,,,,,,,,,,,,,,,,,,,,,,,,,,,,,,,,,,,,,,,2091.2220166999614,2091.2220166999614,num_2,4.666574199975003,,,,,,,,,,athos,001,2023-12-18_16h31.44.206,game,2022.2.5,59.99289683581633,
,,,,41,0,41,0,,,,,,,,,,,,,,,,,,,,,,,,,,,,,,,,,,,,,,,,,,,,,2096.238374700013,2096.238374700013,num_0,3.2182220999966376,,,,,,,,,,athos,001,2023-12-18_16h31.44.206,game,2022.2.5,59.99289683581633,
,,,,42,0,42,0,,,,,,,,,,,,,,,,,,,,,,,,,,,,,,,,,,,,,,,,,,,,,2099.8217376999673,2099.8217376999673,num_1,1.8343845999916084,,,,,,,,,,athos,001,2023-12-18_16h31.44.206,game,2022.2.5,59.99289683581633,
,,,,43,0,43,0,,,,,,,,,,,,,,,,,,,,,,,,,,,,,,,,,,,,,,,,,,,,,2102.087615699973,2102.087615699973,num_7,2.4730826999875717,,,,,,,,,,athos,001,2023-12-18_16h31.44.206,game,2022.2.5,59.99289683581633,
,,,,44,0,44,0,,,,,,,,,,,,,,,,,,,,,,,,,,,,,,,,,,,,,,,,,,,,,2104.9379316999693,2104.9379316999693,num_0,1.2945011000265367,,,,,,,,,,athos,001,2023-12-18_16h31.44.206,game,2022.2.5,59.99289683581633,
,,,,45,0,45,0,,,,,,,,,,,,,,,,,,,,,,,,,,,,,,,,,,,,,,,,,,,,,2106.6211368999793,2106.6211368999793,num_5,1.6835154999862425,,,,,,,,,,athos,001,2023-12-18_16h31.44.206,game,2022.2.5,59.99289683581633,
,,,,46,0,46,0,,,,,,,,,,,,,,,,,,,,,,,,,,,,,,,,,,,,,,,,,,,,,2108.688838300004,2108.688838300004,num_4,3.7919111999799497,,,,,,,,,,athos,001,2023-12-18_16h31.44.206,game,2022.2.5,59.99289683581633,
,,,,,,,,,,,,,,,,,,,,,,,,,,,,,,,,,,,,,,,,,,,,,,,,,,,,,,,,2113.588882799959,2113.588882799959,space,2.164275799994357,,,,,,athos,001,2023-12-18_16h31.44.206,game,2022.2.5,59.99289683581633,
,,,,,,,,,,,,,,,,,,,,,,,,,,,,,,,,,,,,,,,,,,,,,,,,,,,,,,,,,,,,3126.9595284999814,3126.9595284999814,space,149.1228681000066,,athos,001,2023-12-18_16h31.44.206,game,2022.2.5,59.99289683581633,
,,,,,,,,,,,,,,,,,,,,,,,,,,,,,,3276.124078999972,3276.124078999972,space,5.675535899994429,,,,,,,,,,,,,,,,,,,,,,,,,,,,,,,,athos,001,2023-12-18_16h31.44.206,game,2022.2.5,59.99289683581633,
,,,,,,,,0,0,0,0,,,,,,,,,,,,,,,,,,,,,,,1,3281.8264455999597,3281.8264455999597,3281.8264455999597,3282.826069200004,None,3282.826069200004,3282.826069200004,1,406.00149997044355,space,0.40600149997044355,3283.273785699974,3283.7754839999834,,,,,,,,,,,,,,,,,,athos,001,2023-12-18_16h31.44.206,game,2022.2.5,59.99289683581633,
,,,,,,,,1,0,1,0,,,,,,,,,,,,,,,,,,,,,,,1,3283.7754839999834,3283.7754839999834,3283.7754839999834,3284.77547719999,None,3284.77547719999,3284.77547719999,1,304.0257000247948,space,0.3040257000247948,3285.1073875,3285.6091429999797,,,,,,,,,,,,,,,,,,athos,001,2023-12-18_16h31.44.206,game,2022.2.5,59.99289683581633,
,,,,,,,,2,0,2,0,,,,,,,,,,,,,,,,,,,,,,,1,3285.6091429999797,3285.6091429999797,3285.6091429999797,3286.6088200999657,None,3286.6088200999657,3286.6088200999657,1,311.1157999956049,space,0.3111157999956049,3286.942145499983,3287.441889400012,,,,,,,,,,,,,,,,,,athos,001,2023-12-18_16h31.44.206,game,2022.2.5,59.99289683581633,
,,,,,,,,3,0,3,0,,,,,,,,,,,,,,,,,,,,,,,1,3287.441889400012,3287.441889400012,3287.441889400012,3288.442002900003,None,3288.442002900003,3288.442002900003,1,310.16180000733584,space,0.31016180000733584,3288.775578200002,3289.2752888000105,,,,,,,,,,,,,,,,,,athos,001,2023-12-18_16h31.44.206,game,2022.2.5,59.99289683581633,
,,,,,,,,4,0,4,0,,,,,,,,,,,,,,,,,,,,,,,4,3289.2752888000105,3289.2752888000105,3292.2776747999596,3293.2767836999847,None,3293.2767836999847,3293.2767836999847,1,315.31159998849034,space,0.31531159998849034,3293.623058600002,3294.1255601000157,,,,,,,,,,,,,,,,,,athos,001,2023-12-18_16h31.44.206,game,2022.2.5,59.99289683581633,
,,,,,,,,5,0,5,0,,,,,,,,,,,,,,,,,,,,,,,3,3294.1255601000157,3294.1255601000157,3296.124954500003,3297.1246426000143,None,3297.1246426000143,3297.1246426000143,1,299.5431000017561,space,0.2995431000017561,3297.4560149000026,3297.958331700007,,,,,,,,,,,,,,,,,,athos,001,2023-12-18_16h31.44.206,game,2022.2.5,59.99289683581633,
,,,,,,,,6,0,6,0,,,,,,,,,,,,,,,,,,,,,,,3,3297.958331700007,3297.958331700007,3299.9580724000116,3300.9579612999805,None,3300.9579612999805,3300.9579612999805,1,299.3741000536829,space,0.2993741000536829,3301.2895429999917,3301.7911815000116,,,,,,,,,,,,,,,,,,athos,001,2023-12-18_16h31.44.206,game,2022.2.5,59.99289683581633,
,,,,,,,,7,0,7,0,,,,,,,,,,,,,,,,,,,,,,,1,3301.7911815000116,3301.7911815000116,3301.7911815000116,3302.7912106000003,None,3302.7912106000003,3302.7912106000003,1,361.3005999941379,space,0.3613005999941379,3303.1895016999915,3303.690947299998,,,,,,,,,,,,,,,,,,athos,001,2023-12-18_16h31.44.206,game,2022.2.5,59.99289683581633,
,,,,,,,,8,0,8,0,,,,,,,,,,,,,,,,,,,,,,,2,3303.690947299998,3303.690947299998,3304.690771499998,3305.690882999974,None,3305.690882999974,3305.690882999974,1,325.31420001760125,space,0.32531420001760125,3306.05588900001,3306.558617600007,,,,,,,,,,,,,,,,,,athos,001,2023-12-18_16h31.44.206,game,2022.2.5,59.99289683581633,
,,,,,,,,9,0,9,0,,,,,,,,,,,,,,,,,,,,,,,3,3306.558617600007,3306.558617600007,3308.5575615999987,3309.5572338000056,None,3309.5572338000056,3309.5572338000056,1,322.76870001805946,space,0.32276870001805946,3309.908025999961,3310.408240199962,,,,,,,,,,,,,,,,,,athos,001,2023-12-18_16h31.44.206,game,2022.2.5,59.99289683581633,
,,,,,,,,10,0,10,0,,,,,,,,,,,,,,,,,,,,,,,2,3310.408240199962,3310.408240199962,3311.4084375000093,3312.4078796000103,None,3312.4078796000103,3312.4078796000103,1,320.0981999980286,space,0.3200981999980286,3312.757200399996,3313.2582435999648,,,,,,,,,,,,,,,,,,athos,001,2023-12-18_16h31.44.206,game,2022.2.5,59.99289683581633,
,,,,,,,,11,0,11,0,,,,,,,,,,,,,,,,,,,,,,,2,3313.2582435999648,3313.2582435999648,3314.259644099977,3315.2590507999994,None,3315.2590507999994,3315.2590507999994,1,341.3861999870278,space,0.3413861999870278,3315.624459899962,3316.1262974999845,,,,,,,,,,,,,,,,,,athos,001,2023-12-18_16h31.44.206,game,2022.2.5,59.99289683581633,
,,,,,,,,12,0,12,0,,,,,,,,,,,,,,,,,,,,,,,4,3316.1262974999845,3316.1262974999845,3319.1406870000064,3320.1404417000012,None,3320.1404417000012,3320.1404417000012,1,340.0931000360288,space,0.3400931000360288,3320.5074091000133,3321.0073645999655,,,,,,,,,,,,,,,,,,athos,001,2023-12-18_16h31.44.206,game,2022.2.5,59.99289683581633,
,,,,,,,,13,0,13,0,,,,,,,,,,,,,,,,,,,,,,,2,3321.0073645999655,3321.0073645999655,3322.0072878999636,3323.0075938999653,None,3323.0075938999653,3323.0075938999653,1,345.9371000062674,space,0.34593710000626743,3323.3881353999604,3323.889849899977,,,,,,,,,,,,,,,,,,athos,001,2023-12-18_16h31.44.206,game,2022.2.5,59.99289683581633,
,,,,,,,,14,0,14,0,,,,,,,,,,,,,,,,,,,,,,,4,3323.889849899977,3323.889849899977,3326.8895284999744,3327.889853700006,None,3327.889853700006,3327.889853700006,1,319.16010001441464,space,0.31916010001441464,3328.2382393999724,3328.7396722999983,,,,,,,,,,,,,,,,,,athos,001,2023-12-18_16h31.44.206,game,2022.2.5,59.99289683581633,
,,,,,,,,15,0,15,0,,,,,,,,,,,,,,,,,,,,,,,3,3328.7396722999983,3328.7396722999983,3330.739743400016,3331.739761199977,None,3331.739761199977,3331.739761199977,1,339.9768000235781,space,0.3399768000235781,3332.1209519999684,3332.6228685000096,,,,,,,,,,,,,,,,,,athos,001,2023-12-18_16h31.44.206,game,2022.2.5,59.99289683581633,
,,,,,,,,16,0,16,0,,,,,,,,,,,,,,,,,,,,,,,4,3332.6228685000096,3332.6228685000096,3335.62257149996,3336.62274229998,None,3336.62274229998,3336.62274229998,1,322.3190999706276,space,0.3223190999706276,3336.973104499979,3337.473163299961,,,,,,,,,,,,,,,,,,athos,001,2023-12-18_16h31.44.206,game,2022.2.5,59.99289683581633,
,,,,,,,,17,0,17,0,,,,,,,,,,,,,,,,,,,,,,,3,3337.473163299961,3337.473163299961,3339.4733782999683,3340.472890099976,None,3340.472890099976,3340.472890099976,1,360.3533999994397,space,0.3603533999994397,3340.870081399975,3341.3724812999717,,,,,,,,,,,,,,,,,,athos,001,2023-12-18_16h31.44.206,game,2022.2.5,59.99289683581633,
,,,,,,,,18,0,18,0,,,,,,,,,,,,,,,,,,,,,,,1,3341.3724812999717,3341.3724812999717,3341.3724812999717,3342.3721842999803,None,3342.3721842999803,3342.3721842999803,1,403.64319999935105,space,0.40364319999935105,3342.8044069999596,3343.305810799997,,,,,,,,,,,,,,,,,,athos,001,2023-12-18_16h31.44.206,game,2022.2.5,59.99289683581633,
,,,,,,,,19,0,19,0,,,,,,,,,,,,,,,,,,,,,,,4,3343.305810799997,3343.305810799997,3346.305588599993,3347.305599699961,None,3347.305599699961,3347.305599699961,1,374.6808000141755,space,0.3746808000141755,3347.719810699986,3348.2217175000114,,,,,,,,,,,,,,,,,,athos,001,2023-12-18_16h31.44.206,game,2022.2.5,59.99289683581633,
,,,,,,,,20,0,20,0,,,,,,,,,,,,,,,,,,,,,,,2,3348.2217175000114,3348.2217175000114,3349.222702900006,3350.2222172999755,None,3350.2222172999755,3350.2222172999755,1,298.2769000227563,space,0.2982769000227563,3350.5529212999973,3351.0566913000075,,,,,,,,,,,,,,,,,,athos,001,2023-12-18_16h31.44.206,game,2022.2.5,59.99289683581633,
,,,,,,,,21,0,21,0,,,,,,,,,,,,,,,,,,,,,,,2,3351.0566913000075,3351.0566913000075,3352.0552194999764,3353.0550076999934,None,3353.0550076999934,3353.0550076999934,1,345.61789996223524,space,0.34561789996223524,3353.436495599977,3353.9382332999958,,,,,,,,,,,,,,,,,,athos,001,2023-12-18_16h31.44.206,game,2022.2.5,59.99289683581633,
,,,,,,,,22,0,22,0,,,,,,,,,,,,,,,,,,,,,,,3,3353.9382332999958,3353.9382332999958,3355.9382740000146,3356.9382154999766,None,3356.9382154999766,3356.9382154999766,1,309.71439997665584,space,0.30971439997665584,3357.2863324999926,3357.7886363000143,,,,,,,,,,,,,,,,,,athos,001,2023-12-18_16h31.44.206,game,2022.2.5,59.99289683581633,
,,,,,,,,23,0,23,0,,,,,,,,,,,,,,,,,,,,,,,3,3357.7886363000143,3357.7886363000143,3359.7882473999634,3360.788183800003,None,3360.788183800003,3360.788183800003,1,316.0298999864608,space,0.3160298999864608,3361.1370974999736,3361.6380923999823,,,,,,,,,,,,,,,,,,athos,001,2023-12-18_16h31.44.206,game,2022.2.5,59.99289683581633,
,,,,,,,,24,0,24,0,,,,,,,,,,,,,,,,,,,,,,,3,3361.6380923999823,3361.6380923999823,3363.6381951000076,3364.637655299972,None,3364.637655299972,3364.637655299972,1,315.2719000354409,space,0.3152719000354409,3364.9857070000144,3365.4878242000123,,,,,,,,,,,,,,,,,,athos,001,2023-12-18_16h31.44.206,game,2022.2.5,59.99289683581633,
,,,,,,,,25,0,25,0,,,,,,,,,,,,,,,,,,,,,,,1,3365.4878242000123,3365.4878242000123,3365.4878242000123,3366.488154499966,None,3366.488154499966,3366.488154499966,1,344.2207999760285,space,0.3442207999760285,3366.8541725999676,3367.354332799965,,,,,,,,,,,,,,,,,,athos,001,2023-12-18_16h31.44.206,game,2022.2.5,59.99289683581633,
,,,,,,,,26,0,26,0,,,,,,,,,,,,,,,,,,,,,,,4,3367.354332799965,3367.354332799965,3370.3543292999966,3371.354467500001,None,3371.354467500001,3371.354467500001,1,326.407200016547,space,0.326407200016547,3371.7047007000074,3372.206295299984,,,,,,,,,,,,,,,,,,athos,001,2023-12-18_16h31.44.206,game,2022.2.5,59.99289683581633,
,,,,,,,,27,0,27,0,,,,,,,,,,,,,,,,,,,,,,,2,3372.206295299984,3372.206295299984,3373.2045433999738,3374.220581099973,None,3374.220581099973,3374.220581099973,1,355.9075999655761,space,0.3559075999655761,3374.6049318999867,3375.1062804000103,,,,,,,,,,,,,,,,,,athos,001,2023-12-18_16h31.44.206,game,2022.2.5,59.99289683581633,
,,,,,,,,28,0,28,0,,,,,,,,,,,,,,,,,,,,,,,4,3375.1062804000103,3375.1062804000103,3378.120131500007,3379.1202370999963,None,3379.1202370999963,3379.1202370999963,1,321.1589999846183,space,0.3211589999846183,3379.4709423999884,3379.97081530001,,,,,,,,,,,,,,,,,,athos,001,2023-12-18_16h31.44.206,game,2022.2.5,59.99289683581633,
,,,,,,,,29,0,29,0,,,,,,,,,,,,,,,,,,,,,,,1,3379.97081530001,3379.97081530001,3379.97081530001,3380.970830200007,None,3380.970830200007,3380.970830200007,1,525.9402000228874,space,0.5259402000228874,3381.5357391000143,3382.0371231999598,,,,,,,,,,,,,,,,,,athos,001,2023-12-18_16h31.44.206,game,2022.2.5,59.99289683581633,
,,,,,,,,30,0,30,0,,,,,,,,,,,,,,,,,,,,,,,3,3382.0371231999598,3382.0371231999598,3384.037057999987,3385.036795699969,None,3385.036795699969,3385.036795699969,1,307.69689998123795,space,0.30769689998123795,3385.385558400012,3385.8892342000036,,,,,,,,,,,,,,,,,,athos,001,2023-12-18_16h31.44.206,game,2022.2.5,59.99289683581633,
,,,,,,,,31,0,31,0,,,,,,,,,,,,,,,,,,,,,,,4,3385.8892342000036,3385.8892342000036,3388.903826900001,3389.9037405999843,None,3389.9037405999843,3389.9037405999843,1,321.7096999869682,space,0.3217096999869682,3390.2693441999727,3390.7698205999914,,,,,,,,,,,,,,,,,,athos,001,2023-12-18_16h31.44.206,game,2022.2.5,59.99289683581633,
,,,,,,,,32,0,32,0,,,,,,,,,,,,,,,,,,,,,,,4,3390.7698205999914,3390.7698205999914,3393.770034699992,3394.769516500004,None,3394.769516500004,3394.769516500004,1,311.52609997661784,space,0.31152609997661784,3395.1177878999733,3395.619629899971,,,,,,,,,,,,,,,,,,athos,001,2023-12-18_16h31.44.206,game,2022.2.5,59.99289683581633,
,,,,,,,,33,0,33,0,,,,,,,,,,,,,,,,,,,,,,,4,3395.619629899971,3395.619629899971,3398.619386699982,3399.619492699974,None,3399.619492699974,3399.619492699974,1,349.5410999748856,space,0.3495410999748856,3400.000585699978,3400.5022354999674,,,,,,,,,,,,,,,,,,athos,001,2023-12-18_16h31.44.206,game,2022.2.5,59.99289683581633,
,,,,,,,,34,0,34,0,,,,,,,,,,,,,,,,,,,,,,,1,3400.5022354999674,3400.5022354999674,3400.5022354999674,3401.5023395000026,None,3401.5023395000026,3401.5023395000026,1,385.9274999704212,space,0.3859274999704212,3401.9172644999926,3402.419096799975,,,,,,,,,,,,,,,,,,athos,001,2023-12-18_16h31.44.206,game,2022.2.5,59.99289683581633,
,,,,,,,,35,0,35,0,,,,,,,,,,,,,,,,,,,,,,,2,3402.419096799975,3402.419096799975,3403.419134099968,3404.418914299982,None,3404.418914299982,3404.418914299982,1,325.4469000385143,space,0.3254469000385143,3404.76954259997,3405.271786700003,,,,,,,,,,,,,,,,,,athos,001,2023-12-18_16h31.44.206,game,2022.2.5,59.99289683581633,
,,,,,,,,36,0,36,0,,,,,,,,,,,,,,,,,,,,,,,3,3405.271786700003,3405.271786700003,3407.2854327000096,3408.285523700004,None,3408.285523700004,3408.285523700004,1,340.3764000395313,space,0.3403764000395313,3408.652056699968,3409.154409300012,,,,,,,,,,,,,,,,,,athos,001,2023-12-18_16h31.44.206,game,2022.2.5,59.99289683581633,
,,,,,,,,37,0,37,0,,,,,,,,,,,,,,,,,,,,,,,1,3409.154409300012,3409.154409300012,3409.154409300012,3410.1531196999713,None,3410.1531196999713,3410.1531196999713,1,391.3211000035517,space,0.3913211000035517,3410.570701599994,3411.0727422999917,,,,,,,,,,,,,,,,,,athos,001,2023-12-18_16h31.44.206,game,2022.2.5,59.99289683581633,
,,,,,,,,38,0,38,0,,,,,,,,,,,,,,,,,,,,,,,3,3411.0727422999917,3411.0727422999917,3413.085040199978,3414.0849355999962,None,3414.0849355999962,3414.0849355999962,1,316.274999990128,space,0.316274999990128,3414.4329518000013,3414.9354243999696,,,,,,,,,,,,,,,,,,athos,001,2023-12-18_16h31.44.206,game,2022.2.5,59.99289683581633,
,,,,,,,,39,0,39,0,,,,,,,,,,,,,,,,,,,,,,,4,3414.9354243999696,3414.9354243999696,3417.9352096999646,3418.935567700013,None,3418.935567700013,3418.935567700013,1,321.6402999823913,space,0.3216402999823913,3419.2999866000027,3419.80166930001,,,,,,,,,,,,,,,,,,athos,001,2023-12-18_16h31.44.206,game,2022.2.5,59.99289683581633,
,,,,,,,,40,0,40,0,,,,,,,,,,,,,,,,,,,,,,,1,3419.80166930001,3419.80166930001,3419.80166930001,3420.8012786000036,None,3420.8012786000036,3420.8012786000036,1,479.698599956464,space,0.479698599956464,3421.3165731999907,3421.8183796000085,,,,,,,,,,,,,,,,,,athos,001,2023-12-18_16h31.44.206,game,2022.2.5,59.99289683581633,
,,,,,,,,41,0,41,0,,,,,,,,,,,,,,,,,,,,,,,3,3421.8183796000085,3421.8183796000085,3423.8179603999597,3424.818122399971,None,3424.818122399971,3424.818122399971,1,367.1119000064209,space,0.3671119000064209,3425.215879199968,3425.7177834999748,,,,,,,,,,,,,,,,,,athos,001,2023-12-18_16h31.44.206,game,2022.2.5,59.99289683581633,
,,,,,,,,42,0,42,0,,,,,,,,,,,,,,,,,,,,,,,2,3425.7177834999748,3425.7177834999748,3426.717704999959,3427.7179240999976,None,3427.7179240999976,3427.7179240999976,1,355.20510002970695,space,0.35520510002970695,3428.1164717999636,3428.6177998000057,,,,,,,,,,,,,,,,,,athos,001,2023-12-18_16h31.44.206,game,2022.2.5,59.99289683581633,
,,,,,,,,43,0,43,0,,,,,,,,,,,,,,,,,,,,,,,3,3428.6177998000057,3428.6177998000057,3430.6177539000055,3431.6176609999966,None,3431.6176609999966,3431.6176609999966,1,295.625300030224,space,0.295625300030224,3431.9490742000053,3432.4509726999677,,,,,,,,,,,,,,,,,,athos,001,2023-12-18_16h31.44.206,game,2022.2.5,59.99289683581633,
,,,,,,,,,,,,,,,,,,,,,,,,,,,,,,,,,,,,,,,,,,,,,,,,3432.4509726999677,3432.4509726999677,space,3.3016578999813646,,,,,,,,,,,,,,athos,001,2023-12-18_16h31.44.206,game,2022.2.5,59.99289683581633,
,,,,,,,,,,,,0,0,0,0,,,,,,,,,,,,,,,,,,,,,,,,,,,,,,,,,,,,,3435.7986545999884,3435.7986545999884,num_8,1.2824711999855936,,,,,,,,,,athos,001,2023-12-18_16h31.44.206,game,2022.2.5,59.99289683581633,
,,,,,,,,,,,,1,0,1,0,,,,,,,,,,,,,,,,,,,,,,,,,,,,,,,,,,,,,3437.4658472000156,3437.4658472000156,num_1,1.3431895000394434,,,,,,,,,,athos,001,2023-12-18_16h31.44.206,game,2022.2.5,59.99289683581633,
,,,,,,,,,,,,2,0,2,0,,,,,,,,,,,,,,,,,,,,,,,,,,,,,,,,,,,,,3439.1821753999684,3439.1821753999684,num_9,2.0821746000437997,,,,,,,,,,athos,001,2023-12-18_16h31.44.206,game,2022.2.5,59.99289683581633,
,,,,,,,,,,,,3,0,3,0,,,,,,,,,,,,,,,,,,,,,,,,,,,,,,,,,,,,,3441.615741799993,3441.615741799993,num_7,3.0653395999688655,,,,,,,,,,athos,001,2023-12-18_16h31.44.206,game,2022.2.5,59.99289683581633,
,,,,,,,,,,,,4,0,4,0,,,,,,,,,,,,,,,,,,,,,,,,,,,,,,,,,,,,,3445.0654001999646,3445.0654001999646,num_6,4.22494700003881,,,,,,,,,,athos,001,2023-12-18_16h31.44.206,game,2022.2.5,59.99289683581633,
,,,,,,,,,,,,5,0,5,0,,,,,,,,,,,,,,,,,,,,,,,,,,,,,,,,,,,,,3449.648540299968,3449.648540299968,num_0,2.8572238000342622,,,,,,,,,,athos,001,2023-12-18_16h31.44.206,game,2022.2.5,59.99289683581633,
,,,,,,,,,,,,6,0,6,0,,,,,,,,,,,,,,,,,,,,,,,,,,,,,,,,,,,,,3452.8820257000043,3452.8820257000043,num_3,2.783905499964021,,,,,,,,,,athos,001,2023-12-18_16h31.44.206,game,2022.2.5,59.99289683581633,
,,,,,,,,,,,,7,0,7,0,,,,,,,,,,,,,,,,,,,,,,,,,,,,,,,,,,,,,3456.0161231000093,3456.0161231000093,num_5,1.3689784000162035,,,,,,,,,,athos,001,2023-12-18_16h31.44.206,game,2022.2.5,59.99289683581633,
,,,,,,,,,,,,8,0,8,0,,,,,,,,,,,,,,,,,,,,,,,,,,,,,,,,,,,,,3457.766576099966,3457.766576099966,num_7,1.2423363999696448,,,,,,,,,,athos,001,2023-12-18_16h31.44.206,game,2022.2.5,59.99289683581633,
,,,,,,,,,,,,9,0,9,0,,,,,,,,,,,,,,,,,,,,,,,,,,,,,,,,,,,,,3459.3823688999983,3459.3823688999983,num_4,2.07412339997245,,,,,,,,,,athos,001,2023-12-18_16h31.44.206,game,2022.2.5,59.99289683581633,
,,,,,,,,,,,,10,0,10,0,,,,,,,,,,,,,,,,,,,,,,,,,,,,,,,,,,,,,3461.814913899987,3461.814913899987,num_0,1.145685900002718,,,,,,,,,,athos,001,2023-12-18_16h31.44.206,game,2022.2.5,59.99289683581633,
,,,,,,,,,,,,11,0,11,0,,,,,,,,,,,,,,,,,,,,,,,,,,,,,,,,,,,,,3463.314354299975,3463.314354299975,num_3,1.4148949999944307,,,,,,,,,,athos,001,2023-12-18_16h31.44.206,game,2022.2.5,59.99289683581633,
,,,,,,,,,,,,12,0,12,0,,,,,,,,,,,,,,,,,,,,,,,,,,,,,,,,,,,,,3465.081502599991,3465.081502599991,num_4,2.351555200002622,,,,,,,,,,athos,001,2023-12-18_16h31.44.206,game,2022.2.5,59.99289683581633,
,,,,,,,,,,,,13,0,13,0,,,,,,,,,,,,,,,,,,,,,,,,,,,,,,,,,,,,,3467.8145691999816,3467.8145691999816,num_5,1.0585720999515615,,,,,,,,,,athos,001,2023-12-18_16h31.44.206,game,2022.2.5,59.99289683581633,
,,,,,,,,,,,,14,0,14,0,,,,,,,,,,,,,,,,,,,,,,,,,,,,,,,,,,,,,3469.2473367999773,3469.2473367999773,num_4,1.1372901999857277,,,,,,,,,,athos,001,2023-12-18_16h31.44.206,game,2022.2.5,59.99289683581633,
,,,,,,,,,,,,15,0,15,0,,,,,,,,,,,,,,,,,,,,,,,,,,,,,,,,,,,,,3470.7474995999946,3470.7474995999946,num_2,1.854239999956917,,,,,,,,,,athos,001,2023-12-18_16h31.44.206,game,2022.2.5,59.99289683581633,
,,,,,,,,,,,,16,0,16,0,,,,,,,,,,,,,,,,,,,,,,,,,,,,,,,,,,,,,3472.9471451999852,3472.9471451999852,num_7,3.8460745999473147,,,,,,,,,,athos,001,2023-12-18_16h31.44.206,game,2022.2.5,59.99289683581633,
,,,,,,,,,,,,17,0,17,0,,,,,,,,,,,,,,,,,,,,,,,,,,,,,,,,,,,,,3477.1639649000135,3477.1639649000135,num_3,1.2690553000429645,,,,,,,,,,athos,001,2023-12-18_16h31.44.206,game,2022.2.5,59.99289683581633,
,,,,,,,,,,,,18,0,18,0,,,,,,,,,,,,,,,,,,,,,,,,,,,,,,,,,,,,,3478.78042179998,3478.78042179998,num_6,5.052356400003191,,,,,,,,,,athos,001,2023-12-18_16h31.44.206,game,2022.2.5,59.99289683581633,
,,,,,,,,,,,,19,0,19,0,,,,,,,,,,,,,,,,,,,,,,,,,,,,,,,,,,,,,3484.196462299966,3484.196462299966,num_7,1.3810240000020713,,,,,,,,,,athos,001,2023-12-18_16h31.44.206,game,2022.2.5,59.99289683581633,
,,,,,,,,,,,,20,0,20,0,,,,,,,,,,,,,,,,,,,,,,,,,,,,,,,,,,,,,3485.9466352000018,3485.9466352000018,num_6,1.015570200048387,,,,,,,,,,athos,001,2023-12-18_16h31.44.206,game,2022.2.5,59.99289683581633,
,,,,,,,,,,,,21,0,21,0,,,,,,,,,,,,,,,,,,,,,,,,,,,,,,,,,,,,,3487.329736799991,3487.329736799991,num_8,2.152289599995129,,,,,,,,,,athos,001,2023-12-18_16h31.44.206,game,2022.2.5,59.99289683581633,
,,,,,,,,,,,,22,0,22,0,,,,,,,,,,,,,,,,,,,,,,,,,,,,,,,,,,,,,3489.829512999975,3489.829512999975,num_5,1.651832600007765,,,,,,,,,,athos,001,2023-12-18_16h31.44.206,game,2022.2.5,59.99289683581633,
,,,,,,,,,,,,23,0,23,0,,,,,,,,,,,,,,,,,,,,,,,,,,,,,,,,,,,,,3491.8296134999837,3491.8296134999837,num_1,4.547203499998432,,,,,,,,,,athos,001,2023-12-18_16h31.44.206,game,2022.2.5,59.99289683581633,
,,,,,,,,,,,,24,0,24,0,,,,,,,,,,,,,,,,,,,,,,,,,,,,,,,,,,,,,3496.729345700005,3496.729345700005,num_7,1.2560156999970786,,,,,,,,,,athos,001,2023-12-18_16h31.44.206,game,2022.2.5,59.99289683581633,
,,,,,,,,,,,,25,0,25,0,,,,,,,,,,,,,,,,,,,,,,,,,,,,,,,,,,,,,3498.3286993000074,3498.3286993000074,num_1,7.160558000032324,,,,,,,,,,athos,001,2023-12-18_16h31.44.206,game,2022.2.5,59.99289683581633,
,,,,,,,,,,,,26,0,26,0,,,,,,,,,,,,,,,,,,,,,,,,,,,,,,,,,,,,,3505.8288470999687,3505.8288470999687,num_8,3.805114599992521,,,,,,,,,,athos,001,2023-12-18_16h31.44.206,game,2022.2.5,59.99289683581633,
,,,,,,,,,,,,27,0,27,0,,,,,,,,,,,,,,,,,,,,,,,,,,,,,,,,,,,,,3510.0120951000135,3510.0120951000135,num_2,2.1331997999805026,,,,,,,,,,athos,001,2023-12-18_16h31.44.206,game,2022.2.5,59.99289683581633,
,,,,,,,,,,,,28,0,28,0,,,,,,,,,,,,,,,,,,,,,,,,,,,,,,,,,,,,,3512.4950877999654,3512.4950877999654,num_8,6.098481200053357,,,,,,,,,,athos,001,2023-12-18_16h31.44.206,game,2022.2.5,59.99289683581633,
,,,,,,,,,,,,29,0,29,0,,,,,,,,,,,,,,,,,,,,,,,,,,,,,,,,,,,,,3518.9451028999756,3518.9451028999756,num_7,3.9608232000027783,,,,,,,,,,athos,001,2023-12-18_16h31.44.206,game,2022.2.5,59.99289683581633,
,,,,,,,,,,,,30,0,30,0,,,,,,,,,,,,,,,,,,,,,,,,,,,,,,,,,,,,,3523.293957899965,3523.293957899965,num_8,2.187114800035488,,,,,,,,,,athos,001,2023-12-18_16h31.44.206,game,2022.2.5,59.99289683581633,
,,,,,,,,,,,,31,0,31,0,,,,,,,,,,,,,,,,,,,,,,,,,,,,,,,,,,,,,3525.845132699993,3525.845132699993,num_7,18.51606619998347,,,,,,,,,,athos,001,2023-12-18_16h31.44.206,game,2022.2.5,59.99289683581633,
,,,,,,,,,,,,32,0,32,0,,,,,,,,,,,,,,,,,,,,,,,,,,,,,,,,,,,,,3544.7601710999734,3544.7601710999734,num_6,1.617467999982182,,,,,,,,,,athos,001,2023-12-18_16h31.44.206,game,2022.2.5,59.99289683581633,
,,,,,,,,,,,,33,0,33,0,,,,,,,,,,,,,,,,,,,,,,,,,,,,,,,,,,,,,3546.776883099985,3546.776883099985,num_7,1.6410094000166282,,,,,,,,,,athos,001,2023-12-18_16h31.44.206,game,2022.2.5,59.99289683581633,
,,,,,,,,,,,,34,0,34,0,,,,,,,,,,,,,,,,,,,,,,,,,,,,,,,,,,,,,3548.8432676999946,3548.8432676999946,num_4,8.390115300018806,,,,,,,,,,athos,001,2023-12-18_16h31.44.206,game,2022.2.5,59.99289683581633,
,,,,,,,,,,,,35,0,35,0,,,,,,,,,,,,,,,,,,,,,,,,,,,,,,,,,,,,,3557.659200299997,3557.659200299997,num_9,2.6715338999638334,,,,,,,,,,athos,001,2023-12-18_16h31.44.206,game,2022.2.5,59.99289683581633,
,,,,,,,,,,,,36,0,36,0,,,,,,,,,,,,,,,,,,,,,,,,,,,,,,,,,,,,,3560.742542699969,3560.742542699969,num_0,3.1313045999850146,,,,,,,,,,athos,001,2023-12-18_16h31.44.206,game,2022.2.5,59.99289683581633,
,,,,,,,,,,,,37,0,37,0,,,,,,,,,,,,,,,,,,,,,,,,,,,,,,,,,,,,,3564.242213099962,3564.242213099962,num_3,5.655553100048564,,,,,,,,,,athos,001,2023-12-18_16h31.44.206,game,2022.2.5,59.99289683581633,
,,,,,,,,,,,,38,0,38,0,,,,,,,,,,,,,,,,,,,,,,,,,,,,,,,,,,,,,3570.3918427999597,3570.3918427999597,num_6,4.5943026000168175,,,,,,,,,,athos,001,2023-12-18_16h31.44.206,game,2022.2.5,59.99289683581633,
,,,,,,,,,,,,39,0,39,0,,,,,,,,,,,,,,,,,,,,,,,,,,,,,,,,,,,,,3575.458215699997,3575.458215699997,num_0,1.7439630000153556,,,,,,,,,,athos,001,2023-12-18_16h31.44.206,game,2022.2.5,59.99289683581633,
,,,,,,,,,,,,40,0,40,0,,,,,,,,,,,,,,,,,,,,,,,,,,,,,,,,,,,,,3577.641747899994,3577.641747899994,num_3,1.2559389000525698,,,,,,,,,,athos,001,2023-12-18_16h31.44.206,game,2022.2.5,59.99289683581633,
,,,,,,,,,,,,41,0,41,0,,,,,,,,,,,,,,,,,,,,,,,,,,,,,,,,,,,,,3579.3076326000155,3579.3076326000155,num_5,2.0306219000485726,,,,,,,,,,athos,001,2023-12-18_16h31.44.206,game,2022.2.5,59.99289683581633,
,,,,,,,,,,,,42,0,42,0,,,,,,,,,,,,,,,,,,,,,,,,,,,,,,,,,,,,,3581.791617800016,3581.791617800016,num_1,1.2340971000376157,,,,,,,,,,athos,001,2023-12-18_16h31.44.206,game,2022.2.5,59.99289683581633,
,,,,,,,,,,,,43,0,43,0,,,,,,,,,,,,,,,,,,,,,,,,,,,,,,,,,,,,,3583.474611199985,3583.474611199985,num_5,1.5595917000318877,,,,,,,,,,athos,001,2023-12-18_16h31.44.206,game,2022.2.5,59.99289683581633,
,,,,,,,,,,,,,,,,,,,,,,,,,,,,,,,,,,,,,,,,,,,,,,,,,,,,,,,,3585.7936289999634,3585.7936289999634,space,3.560535600001458,,,,,,athos,001,2023-12-18_16h31.44.206,game,2022.2.5,59.99289683581633,
,,,,,,,,,,,,,,,,,,,,,,,,,,,,,,,,,,,,,,,,,,,,,,,,,,,,,,,,,,,,4597.492110299994,4597.492110299994,space,73.28566729999147,,athos,001,2023-12-18_16h31.44.206,game,2022.2.5,59.99289683581633,
,,,,,,,,,,,,,,,,,,,,,,,,,,,,,,4670.801313099975,4670.801313099975,space,4.015577600046527,,,,,,,,,,,,,,,,,,,,,,,,,,,,,,,,athos,001,2023-12-18_16h31.44.206,game,2022.2.5,59.99289683581633,
,,,,,,,,,,,,,,,,0,0,0,0,,,,,,,,,,,,,,,4,4674.834382099973,4674.834382099973,4677.83392179996,4678.8344402000075,None,4678.8344402000075,4678.8344402000075,1,358.883099979721,space,0.358883099979721,4679.2337774999905,4679.733201199968,,,,,,,,,,,,,,,,,,athos,001,2023-12-18_16h31.44.206,game,2022.2.5,59.99289683581633,
,,,,,,,,,,,,,,,,1,0,1,0,,,,,,,,,,,,,,,1,4679.733201199968,4679.733201199968,4679.733201199968,4680.733158899995,None,4680.733158899995,4680.733158899995,1,332.3705000220798,space,0.3323705000220798,4681.083806999959,4681.584710999974,,,,,,,,,,,,,,,,,,athos,001,2023-12-18_16h31.44.206,game,2022.2.5,59.99289683581633,
,,,,,,,,,,,,,,,,2,0,2,0,,,,,,,,,,,,,,,3,4681.584710999974,4681.584710999974,4683.599837399961,4684.599813700013,None,4684.599813700013,4684.599813700013,1,313.83790000109,space,0.31383790000109,4684.933058800001,4685.433573999966,,,,,,,,,,,,,,,,,,athos,001,2023-12-18_16h31.44.206,game,2022.2.5,59.99289683581633,
,,,,,,,,,,,,,,,,3,0,3,0,,,,,,,,,,,,,,,1,4685.433573999966,4685.433573999966,4685.433573999966,4686.434662099986,None,4686.434662099986,4686.434662099986,1,365.63830001978204,space,0.36563830001978204,4686.831553999975,4687.334596899978,,,,,,,,,,,,,,,,,,athos,001,2023-12-18_16h31.44.206,game,2022.2.5,59.99289683581633,
,,,,,,,,,,,,,,,,4,0,4,0,,,,,,,,,,,,,,,3,4687.334596899978,4687.334596899978,4689.332836599962,4690.333061599988,None,4690.333061599988,4690.333061599988,1,316.0436000325717,space,0.3160436000325717,4690.665930499963,4691.166270099988,,,,,,,,,,,,,,,,,,athos,001,2023-12-18_16h31.44.206,game,2022.2.5,59.99289683581633,
,,,,,,,,,,,,,,,,5,0,5,0,,,,,,,,,,,,,,,1,4691.166270099988,4691.166270099988,4691.166270099988,4692.166050300002,None,4692.166050300002,4692.166050300002,1,370.1411000220105,space,0.3701411000220105,4692.5644034,4693.066235099977,,,,,,,,,,,,,,,,,,athos,001,2023-12-18_16h31.44.206,game,2022.2.5,59.99289683581633,
,,,,,,,,,,,,,,,,6,0,6,0,,,,,,,,,,,,,,,2,4693.066235099977,4693.066235099977,4694.065690199961,4695.065800099983,None,4695.065800099983,4695.065800099983,1,326.37999998405576,space,0.32637999998405576,4695.431295599963,4695.932223099982,,,,,,,,,,,,,,,,,,athos,001,2023-12-18_16h31.44.206,game,2022.2.5,59.99289683581633,
,,,,,,,,,,,,,,,,7,0,7,0,,,,,,,,,,,,,,,3,4695.932223099982,4695.932223099982,4697.932033799996,4698.9323706,None,4698.9323706,4698.9323706,1,332.5415999861434,space,0.3325415999861434,4699.297995899979,4699.79918490001,,,,,,,,,,,,,,,,,,athos,001,2023-12-18_16h31.44.206,game,2022.2.5,59.99289683581633,
,,,,,,,,,,,,,,,,8,0,8,0,,,,,,,,,,,,,,,4,4699.79918490001,4699.79918490001,4702.799420199997,4703.79875289998,None,4703.79875289998,4703.79875289998,1,297.8055999847129,space,0.2978055999847129,4704.130026399973,4704.631792999979,,,,,,,,,,,,,,,,,,athos,001,2023-12-18_16h31.44.206,game,2022.2.5,59.99289683581633,
,,,,,,,,,,,,,,,,9,0,9,0,,,,,,,,,,,,,,,4,4704.631792999979,4704.631792999979,,,None,,,0,nan,None,,4711.9825109000085,4712.482212800009,,,,,,,,,,,,,,,,,,athos,001,2023-12-18_16h31.44.206,game,2022.2.5,59.99289683581633,
,,,,,,,,,,,,,,,,10,0,10,0,,,,,,,,,,,,,,,3,4712.482212800009,4712.482212800009,,,None,,,0,nan,None,,4717.481855099963,4717.981742499978,,,,,,,,,,,,,,,,,,athos,001,2023-12-18_16h31.44.206,game,2022.2.5,59.99289683581633,
,,,,,,,,,,,,,,,,11,0,11,0,,,,,,,,,,,,,,,2,4717.981742499978,4717.981742499978,,,None,,,0,nan,None,,4722.981775699998,4723.4812720000045,,,,,,,,,,,,,,,,,,athos,001,2023-12-18_16h31.44.206,game,2022.2.5,59.99289683581633,
,,,,,,,,,,,,,,,,12,0,12,0,,,,,,,,,,,,,,,1,4723.4812720000045,4723.4812720000045,4723.4812720000045,4724.484533899988,None,4724.484533899988,4724.484533899988,1,405.3724000114016,space,0.4053724000114016,4724.929503899999,4725.431796899997,,,,,,,,,,,,,,,,,,athos,001,2023-12-18_16h31.44.206,game,2022.2.5,59.99289683581633,
,,,,,,,,,,,,,,,,13,0,13,0,,,,,,,,,,,,,,,1,4725.431796899997,4725.431796899997,4725.431796899997,4726.431111300015,None,4726.431111300015,4726.431111300015,1,321.3922000140883,space,0.3213922000140883,4726.795670599968,4727.299675599963,,,,,,,,,,,,,,,,,,athos,001,2023-12-18_16h31.44.206,game,2022.2.5,59.99289683581633,
,,,,,,,,,,,,,,,,14,0,14,0,,,,,,,,,,,,,,,2,4727.299675599963,4727.299675599963,4728.297701500007,4729.314757200016,None,4729.314757200016,4729.314757200016,1,342.60650002397597,space,0.34260650002397597,4729.681256700016,4730.181207499991,,,,,,,,,,,,,,,,,,athos,001,2023-12-18_16h31.44.206,game,2022.2.5,59.99289683581633,
,,,,,,,,,,,,,,,,15,0,15,0,,,,,,,,,,,,,,,2,4730.181207499991,4730.181207499991,4731.181284899998,4732.18070789997,None,4732.18070789997,4732.18070789997,1,333.00009998492897,space,0.33300009998492897,4732.545497799991,4733.047015399963,,,,,,,,,,,,,,,,,,athos,001,2023-12-18_16h31.44.206,game,2022.2.5,59.99289683581633,
,,,,,,,,,,,,,,,,16,0,16,0,,,,,,,,,,,,,,,2,4733.047015399963,4733.047015399963,4734.046996699995,4735.0469374000095,None,4735.0469374000095,4735.0469374000095,1,329.7694000066258,space,0.3297694000066258,4735.412488200003,4735.913452400011,,,,,,,,,,,,,,,,,,athos,001,2023-12-18_16h31.44.206,game,2022.2.5,59.99289683581633,
,,,,,,,,,,,,,,,,17,0,17,0,,,,,,,,,,,,,,,3,4735.913452400011,4735.913452400011,4737.913350599993,4738.9135499999975,None,4738.9135499999975,4738.9135499999975,1,319.1793999867514,space,0.3191793999867514,4739.261982999975,4739.763173400017,,,,,,,,,,,,,,,,,,athos,001,2023-12-18_16h31.44.206,game,2022.2.5,59.99289683581633,
,,,,,,,,,,,,,,,,18,0,18,0,,,,,,,,,,,,,,,3,4739.763173400017,4739.763173400017,4741.76369599998,4742.763081400015,None,4742.763081400015,4742.763081400015,1,334.39229999203235,space,0.33439229999203235,4743.113990299986,4743.613888099964,,,,,,,,,,,,,,,,,,athos,001,2023-12-18_16h31.44.206,game,2022.2.5,59.99289683581633,
,,,,,,,,,,,,,,,,19,0,19,0,,,,,,,,,,,,,,,3,4743.613888099964,4743.613888099964,4745.613902400015,4746.6137323,None,4746.6137323,4746.6137323,1,339.33470002375543,space,0.33933470002375543,4746.980272799963,4747.482223099971,,,,,,,,,,,,,,,,,,athos,001,2023-12-18_16h31.44.206,game,2022.2.5,59.99289683581633,
,,,,,,,,,,,,,,,,20,0,20,0,,,,,,,,,,,,,,,1,4747.482223099971,4747.482223099971,4747.482223099971,4748.481307899987,None,4748.481307899987,4748.481307899987,1,392.41220004623756,space,0.39241220004623756,4748.911941199971,4749.414435599989,,,,,,,,,,,,,,,,,,athos,001,2023-12-18_16h31.44.206,game,2022.2.5,59.99289683581633,
,,,,,,,,,,,,,,,,21,0,21,0,,,,,,,,,,,,,,,3,4749.414435599989,4749.414435599989,4751.412650400016,4752.412934599968,None,4752.412934599968,4752.412934599968,1,348.06460002437234,space,0.34806460002437234,4752.793874399969,4753.298031100014,,,,,,,,,,,,,,,,,,athos,001,2023-12-18_16h31.44.206,game,2022.2.5,59.99289683581633,
,,,,,,,,,,,,,,,,22,0,22,0,,,,,,,,,,,,,,,3,4753.298031100014,4753.298031100014,4755.312718299974,4756.312865999993,None,4756.312865999993,4756.312865999993,1,352.26590000092983,space,0.35226590000092983,4756.694028900005,4757.196153199999,,,,,,,,,,,,,,,,,,athos,001,2023-12-18_16h31.44.206,game,2022.2.5,59.99289683581633,
,,,,,,,,,,,,,,,,23,0,23,0,,,,,,,,,,,,,,,1,4757.196153199999,4757.196153199999,4757.196153199999,4758.196102699963,None,4758.196102699963,4758.196102699963,1,405.5307000526227,space,0.4055307000526227,4758.629625900008,4759.129651599971,,,,,,,,,,,,,,,,,,athos,001,2023-12-18_16h31.44.206,game,2022.2.5,59.99289683581633,
,,,,,,,,,,,,,,,,24,0,24,0,,,,,,,,,,,,,,,4,4759.129651599971,4759.129651599971,4762.128889099986,4763.130497700011,None,4763.130497700011,4763.130497700011,1,327.0003000507131,space,0.3270003000507131,4763.51056689996,4764.01222069998,,,,,,,,,,,,,,,,,,athos,001,2023-12-18_16h31.44.206,game,2022.2.5,59.99289683581633,
,,,,,,,,,,,,,,,,25,0,25,0,,,,,,,,,,,,,,,4,4764.01222069998,4764.01222069998,4767.012385900016,4768.011845499976,None,4768.011845499976,4768.011845499976,1,341.1339000449516,space,0.3411339000449516,4768.381075399986,4768.895526900014,,,,,,,,,,,,,,,,,,athos,001,2023-12-18_16h31.44.206,game,2022.2.5,59.99289683581633,
,,,,,,,,,,,,,,,,26,0,26,0,,,,,,,,,,,,,,,4,4768.895526900014,4768.895526900014,4771.895268999971,4772.8957718000165,None,4772.8957718000165,4772.8957718000165,1,338.60949997324497,space,0.33860949997324497,4773.260424999986,4773.7614512,,,,,,,,,,,,,,,,,,athos,001,2023-12-18_16h31.44.206,game,2022.2.5,59.99289683581633,
,,,,,,,,,,,,,,,,27,0,27,0,,,,,,,,,,,,,,,3,4773.7614512,4773.7614512,4775.761213999998,4776.761440299975,None,4776.761440299975,4776.761440299975,1,375.7196000078693,space,0.3757196000078693,4777.176070199988,4777.677732000011,,,,,,,,,,,,,,,,,,athos,001,2023-12-18_16h31.44.206,game,2022.2.5,59.99289683581633,
,,,,,,,,,,,,,,,,28,0,28,0,,,,,,,,,,,,,,,3,4777.677732000011,4777.677732000011,4779.677829699998,4780.677819899982,None,4780.677819899982,4780.677819899982,1,363.39460004819557,space,0.36339460004819557,4781.075705799973,4781.578121899976,,,,,,,,,,,,,,,,,,athos,001,2023-12-18_16h31.44.206,game,2022.2.5,59.99289683581633,
,,,,,,,,,,,,,,,,29,0,29,0,,,,,,,,,,,,,,,2,4781.578121899976,4781.578121899976,4782.579386800004,4783.5782892999705,None,4783.5782892999705,4783.5782892999705,1,350.9302000165917,space,0.3509302000165917,4783.958755799977,4784.46665409999,,,,,,,,,,,,,,,,,,athos,001,2023-12-18_16h31.44.206,game,2022.2.5,59.99289683581633,
,,,,,,,,,,,,,,,,30,0,30,0,,,,,,,,,,,,,,,1,4784.46665409999,4784.46665409999,4784.46665409999,4785.479914499971,None,4785.479914499971,4785.479914499971,1,369.0773999551311,space,0.3690773999551311,4785.892916399986,4786.395145699964,,,,,,,,,,,,,,,,,,athos,001,2023-12-18_16h31.44.206,game,2022.2.5,59.99289683581633,
,,,,,,,,,,,,,,,,31,0,31,0,,,,,,,,,,,,,,,4,4786.395145699964,4786.395145699964,4789.394017099985,4790.394081200007,None,4790.394081200007,4790.394081200007,1,359.46069995407015,space,0.35946069995407015,4790.791933399974,4791.29638949997,,,,,,,,,,,,,,,,,,athos,001,2023-12-18_16h31.44.206,game,2022.2.5,59.99289683581633,
,,,,,,,,,,,,,,,,32,0,32,0,,,,,,,,,,,,,,,1,4791.29638949997,4791.29638949997,4791.29638949997,4792.311803999997,None,4792.311803999997,4792.311803999997,1,410.1788999978453,space,0.4101788999978453,4792.744259400002,4793.246846199967,,,,,,,,,,,,,,,,,,athos,001,2023-12-18_16h31.44.206,game,2022.2.5,59.99289683581633,
,,,,,,,,,,,,,,,,33,0,33,0,,,,,,,,,,,,,,,2,4793.246846199967,4793.246846199967,4794.260311899998,4795.260342499998,None,4795.260342499998,4795.260342499998,1,333.53090001037344,space,0.33353090001037344,4795.61077759997,4796.111170499993,,,,,,,,,,,,,,,,,,athos,001,2023-12-18_16h31.44.206,game,2022.2.5,59.99289683581633,
,,,,,,,,,,,,,,,,34,0,34,0,,,,,,,,,,,,,,,1,4796.111170499993,4796.111170499993,4796.111170499993,4797.110641499981,None,4797.110641499981,4797.110641499981,1,386.606199957896,space,0.386606199957896,4797.526591099973,4798.027042499976,,,,,,,,,,,,,,,,,,athos,001,2023-12-18_16h31.44.206,game,2022.2.5,59.99289683581633,
,,,,,,,,,,,,,,,,35,0,35,0,,,,,,,,,,,,,,,1,4798.027042499976,4798.027042499976,4798.027042499976,4799.027600799978,None,4799.027600799978,4799.027600799978,1,350.5788999609649,space,0.3505788999609649,4799.395511999959,4799.9104085,,,,,,,,,,,,,,,,,,athos,001,2023-12-18_16h31.44.206,game,2022.2.5,59.99289683581633,
,,,,,,,,,,,,,,,,36,0,36,0,,,,,,,,,,,,,,,4,4799.9104085,4799.9104085,4802.910100799985,4803.9098071999615,None,4803.9098071999615,4803.9098071999615,1,355.8638999820687,space,0.3558638999820687,4804.308965399978,4804.810300200013,,,,,,,,,,,,,,,,,,athos,001,2023-12-18_16h31.44.206,game,2022.2.5,59.99289683581633,
,,,,,,,,,,,,,,,,37,0,37,0,,,,,,,,,,,,,,,3,4804.810300200013,4804.810300200013,4806.8098773999955,4807.809611900011,None,4807.809611900011,4807.809611900011,1,352.40069997962564,space,0.35240069997962564,4808.192483199993,4808.692999499966,,,,,,,,,,,,,,,,,,athos,001,2023-12-18_16h31.44.206,game,2022.2.5,59.99289683581633,
,,,,,,,,,,,,,,,,38,0,38,0,,,,,,,,,,,,,,,4,4808.692999499966,4808.692999499966,4811.692563099961,4812.692520499986,None,4812.692520499986,4812.692520499986,1,308.4536999813281,space,0.3084536999813281,4813.026065999991,4813.526853999996,,,,,,,,,,,,,,,,,,athos,001,2023-12-18_16h31.44.206,game,2022.2.5,59.99289683581633,
,,,,,,,,,,,,,,,,39,0,39,0,,,,,,,,,,,,,,,2,4813.526853999996,4813.526853999996,4814.527514599962,4815.528196599975,None,4815.528196599975,4815.528196599975,1,338.1368999835104,space,0.3381368999835104,4815.908516499971,4816.410006899969,,,,,,,,,,,,,,,,,,athos,001,2023-12-18_16h31.44.206,game,2022.2.5,59.99289683581633,
,,,,,,,,,,,,,,,,40,0,40,0,,,,,,,,,,,,,,,1,4816.410006899969,4816.410006899969,4816.410006899969,4817.410220499965,None,4817.410220499965,4817.410220499965,1,393.1786000030115,space,0.3931786000030115,4817.840541999962,4818.344441599969,,,,,,,,,,,,,,,,,,athos,001,2023-12-18_16h31.44.206,game,2022.2.5,59.99289683581633,
,,,,,,,,,,,,,,,,41,0,41,0,,,,,,,,,,,,,,,3,4818.344441599969,4818.344441599969,4820.342266199994,4821.359661799972,None,4821.359661799972,4821.359661799972,1,353.99060003692284,space,0.35399060003692284,4821.75672569999,4822.260060600005,,,,,,,,,,,,,,,,,,athos,001,2023-12-18_16h31.44.206,game,2022.2.5,59.99289683581633,
,,,,,,,,,,,,,,,,42,0,42,0,,,,,,,,,,,,,,,2,4822.260060600005,4822.260060600005,4823.259106899961,4824.25870429998,None,4824.25870429998,4824.25870429998,1,374.71060000825673,space,0.37471060000825673,4824.673278399976,4825.1774255000055,,,,,,,,,,,,,,,,,,athos,001,2023-12-18_16h31.44.206,game,2022.2.5,59.99289683581633,
,,,,,,,,,,,,,,,,,,,,,,,,,,,,,,,,,,,,,,,,,,,,,,,,4825.1774255000055,4825.1774255000055,space,2.632756600040011,,,,,,,,,,,,,,athos,001,2023-12-18_16h31.44.206,game,2022.2.5,59.99289683581633,
,,,,,,,,,,,,,,,,,,,,0,0,0,0,,,,,,,,,,,,,,,,,,,,,,,,,,,,,4827.856599699997,4827.856599699997,num_5,2.705055300029926,,,,,,,,,,athos,001,2023-12-18_16h31.44.206,game,2022.2.5,59.99289683581633,
,,,,,,,,,,,,,,,,,,,,1,0,1,0,,,,,,,,,,,,,,,,,,,,,,,,,,,,,4830.924093800015,4830.924093800015,num_7,1.4217667000484653,,,,,,,,,,athos,001,2023-12-18_16h31.44.206,game,2022.2.5,59.99289683581633,
,,,,,,,,,,,,,,,,,,,,2,0,2,0,,,,,,,,,,,,,,,,,,,,,,,,,,,,,4832.70696489996,4832.70696489996,num_2,1.815608900040388,,,,,,,,,,athos,001,2023-12-18_16h31.44.206,game,2022.2.5,59.99289683581633,
,,,,,,,,,,,,,,,,,,,,3,0,3,0,,,,,,,,,,,,,,,,,,,,,,,,,,,,,4834.90707159997,4834.90707159997,num_3,9.910377499996684,,,,,,,,,,athos,001,2023-12-18_16h31.44.206,game,2022.2.5,59.99289683581633,
,,,,,,,,,,,,,,,,,,,,4,0,4,0,,,,,,,,,,,,,,,,,,,,,,,,,,,,,4845.323157900013,4845.323157900013,num_6,4.118773500027601,,,,,,,,,,athos,001,2023-12-18_16h31.44.206,game,2022.2.5,59.99289683581633,
,,,,,,,,,,,,,,,,,,,,5,0,5,0,,,,,,,,,,,,,,,,,,,,,,,,,,,,,4849.872648499964,4849.872648499964,num_6,5.282250299991574,,,,,,,,,,athos,001,2023-12-18_16h31.44.206,game,2022.2.5,59.99289683581633,
,,,,,,,,,,,,,,,,,,,,6,0,6,0,,,,,,,,,,,,,,,,,,,,,,,,,,,,,4855.605909599981,4855.605909599981,num_1,2.3802239000215195,,,,,,,,,,athos,001,2023-12-18_16h31.44.206,game,2022.2.5,59.99289683581633,
,,,,,,,,,,,,,,,,,,,,7,0,7,0,,,,,,,,,,,,,,,,,,,,,,,,,,,,,4858.438408999995,4858.438408999995,num_5,1.5868516999762505,,,,,,,,,,athos,001,2023-12-18_16h31.44.206,game,2022.2.5,59.99289683581633,
,,,,,,,,,,,,,,,,,,,,8,0,8,0,,,,,,,,,,,,,,,,,,,,,,,,,,,,,4860.471562699997,4860.471562699997,num_9,2.7467538999626413,,,,,,,,,,athos,001,2023-12-18_16h31.44.206,game,2022.2.5,59.99289683581633,
,,,,,,,,,,,,,,,,,,,,9,0,9,0,,,,,,,,,,,,,,,,,,,,,,,,,,,,,4863.655865699984,4863.655865699984,num_7,8.945976399991196,,,,,,,,,,athos,001,2023-12-18_16h31.44.206,game,2022.2.5,59.99289683581633,
,,,,,,,,,,,,,,,,,,,,10,0,10,0,,,,,,,,,,,,,,,,,,,,,,,,,,,,,4873.038092800009,4873.038092800009,num_4,3.7971374999615364,,,,,,,,,,athos,001,2023-12-18_16h31.44.206,game,2022.2.5,59.99289683581633,
,,,,,,,,,,,,,,,,,,,,11,0,11,0,,,,,,,,,,,,,,,,,,,,,,,,,,,,,4877.254678800004,4877.254678800004,num_1,2.0669871999998577,,,,,,,,,,athos,001,2023-12-18_16h31.44.206,game,2022.2.5,59.99289683581633,
,,,,,,,,,,,,,,,,,,,,12,0,12,0,,,,,,,,,,,,,,,,,,,,,,,,,,,,,4879.737631099997,4879.737631099997,num_7,1.848103100026492,,,,,,,,,,athos,001,2023-12-18_16h31.44.206,game,2022.2.5,59.99289683581633,
,,,,,,,,,,,,,,,,,,,,13,0,13,0,,,,,,,,,,,,,,,,,,,,,,,,,,,,,4881.987711999973,4881.987711999973,num_4,1.2226726000080816,,,,,,,,,,athos,001,2023-12-18_16h31.44.206,game,2022.2.5,59.99289683581633,
,,,,,,,,,,,,,,,,,,,,14,0,14,0,,,,,,,,,,,,,,,,,,,,,,,,,,,,,4883.620716099977,4883.620716099977,num_9,1.0536967999651097,,,,,,,,,,athos,001,2023-12-18_16h31.44.206,game,2022.2.5,59.99289683581633,
,,,,,,,,,,,,,,,,,,,,15,0,15,0,,,,,,,,,,,,,,,,,,,,,,,,,,,,,4885.054453299963,4885.054453299963,num_8,4.331572900002357,,,,,,,,,,athos,001,2023-12-18_16h31.44.206,game,2022.2.5,59.99289683581633,
,,,,,,,,,,,,,,,,,,,,16,0,16,0,,,,,,,,,,,,,,,,,,,,,,,,,,,,,4889.804415499966,4889.804415499966,num_3,5.189291000016965,,,,,,,,,,athos,001,2023-12-18_16h31.44.206,game,2022.2.5,59.99289683581633,
,,,,,,,,,,,,,,,,,,,,17,0,17,0,,,,,,,,,,,,,,,,,,,,,,,,,,,,,4895.454530799994,4895.454530799994,num_1,3.971576999989338,,,,,,,,,,athos,001,2023-12-18_16h31.44.206,game,2022.2.5,59.99289683581633,
,,,,,,,,,,,,,,,,,,,,18,0,18,0,,,,,,,,,,,,,,,,,,,,,,,,,,,,,4899.836795100011,4899.836795100011,num_5,1.4775263000046834,,,,,,,,,,athos,001,2023-12-18_16h31.44.206,game,2022.2.5,59.99289683581633,
,,,,,,,,,,,,,,,,,,,,19,0,19,0,,,,,,,,,,,,,,,,,,,,,,,,,,,,,4901.703418499965,4901.703418499965,num_6,2.466620600025635,,,,,,,,,,athos,001,2023-12-18_16h31.44.206,game,2022.2.5,59.99289683581633,
,,,,,,,,,,,,,,,,,,,,20,0,20,0,,,,,,,,,,,,,,,,,,,,,,,,,,,,,4904.603049699974,4904.603049699974,num_1,2.7033821000368334,,,,,,,,,,athos,001,2023-12-18_16h31.44.206,game,2022.2.5,59.99289683581633,
,,,,,,,,,,,,,,,,,,,,21,0,21,0,,,,,,,,,,,,,,,,,,,,,,,,,,,,,4907.719726899988,4907.719726899988,num_7,2.6511672000051476,,,,,,,,,,athos,001,2023-12-18_16h31.44.206,game,2022.2.5,59.99289683581633,
,,,,,,,,,,,,,,,,,,,,22,0,22,0,,,,,,,,,,,,,,,,,,,,,,,,,,,,,4910.752682899998,4910.752682899998,num_6,9.481226100004278,,,,,,,,,,athos,001,2023-12-18_16h31.44.206,game,2022.2.5,59.99289683581633,
,,,,,,,,,,,,,,,,,,,,23,0,23,0,,,,,,,,,,,,,,,,,,,,,,,,,,,,,4920.685545100016,4920.685545100016,num_8,8.21284300001571,,,,,,,,,,athos,001,2023-12-18_16h31.44.206,game,2022.2.5,59.99289683581633,
,,,,,,,,,,,,,,,,,,,,24,0,24,0,,,,,,,,,,,,,,,,,,,,,,,,,,,,,4929.335236799961,4929.335236799961,num_7,2.17925650003599,,,,,,,,,,athos,001,2023-12-18_16h31.44.206,game,2022.2.5,59.99289683581633,
,,,,,,,,,,,,,,,,,,,,25,0,25,0,,,,,,,,,,,,,,,,,,,,,,,,,,,,,4931.884813099983,4931.884813099983,num_2,1.7409719999996014,,,,,,,,,,athos,001,2023-12-18_16h31.44.206,game,2022.2.5,59.99289683581633,
,,,,,,,,,,,,,,,,,,,,26,0,26,0,,,,,,,,,,,,,,,,,,,,,,,,,,,,,4934.051622900006,4934.051622900006,num_3,7.734890200023074,,,,,,,,,,athos,001,2023-12-18_16h31.44.206,game,2022.2.5,59.99289683581633,
,,,,,,,,,,,,,,,,,,,,27,0,27,0,,,,,,,,,,,,,,,,,,,,,,,,,,,,,4942.267642199993,4942.267642199993,num_1,3.8867966000107117,,,,,,,,,,athos,001,2023-12-18_16h31.44.206,game,2022.2.5,59.99289683581633,
,,,,,,,,,,,,,,,,,,,,28,0,28,0,,,,,,,,,,,,,,,,,,,,,,,,,,,,,4946.53326279996,4946.53326279996,num_6,3.188910700031556,,,,,,,,,,athos,001,2023-12-18_16h31.44.206,game,2022.2.5,59.99289683581633,
,,,,,,,,,,,,,,,,,,,,29,0,29,0,,,,,,,,,,,,,,,,,,,,,,,,,,,,,4950.150681099971,4950.150681099971,num_4,10.595407799992245,,,,,,,,,,athos,001,2023-12-18_16h31.44.206,game,2022.2.5,59.99289683581633,
,,,,,,,,,,,,,,,,,,,,30,0,30,0,,,,,,,,,,,,,,,,,,,,,,,,,,,,,4961.216965099971,4961.216965099971,num_2,5.32109019998461,,,,,,,,,,athos,001,2023-12-18_16h31.44.206,game,2022.2.5,59.99289683581633,
,,,,,,,,,,,,,,,,,,,,31,0,31,0,,,,,,,,,,,,,,,,,,,,,,,,,,,,,4966.9997460999875,4966.9997460999875,num_4,1.5062185999704525,,,,,,,,,,athos,001,2023-12-18_16h31.44.206,game,2022.2.5,59.99289683581633,
,,,,,,,,,,,,,,,,,,,,32,0,32,0,,,,,,,,,,,,,,,,,,,,,,,,,,,,,4968.932728899992,4968.932728899992,num_6,2.582003400020767,,,,,,,,,,athos,001,2023-12-18_16h31.44.206,game,2022.2.5,59.99289683581633,
,,,,,,,,,,,,,,,,,,,,33,0,33,0,,,,,,,,,,,,,,,,,,,,,,,,,,,,,4971.899510599964,4971.899510599964,num_5,1.6077837999910116,,,,,,,,,,athos,001,2023-12-18_16h31.44.206,game,2022.2.5,59.99289683581633,
,,,,,,,,,,,,,,,,,,,,34,0,34,0,,,,,,,,,,,,,,,,,,,,,,,,,,,,,4973.899403499963,4973.899403499963,num_6,1.79876430000877,,,,,,,,,,athos,001,2023-12-18_16h31.44.206,game,2022.2.5,59.99289683581633,
,,,,,,,,,,,,,,,,,,,,35,0,35,0,,,,,,,,,,,,,,,,,,,,,,,,,,,,,4976.082428900001,4976.082428900001,None,,,,,,,,,,,athos,001,2023-12-18_16h31.44.206,game,2022.2.5,59.99289683581633,
,,,,,,,,,,,,,,,,,,,,,,,,,,,,,,,,,,,,,,,,,,,,,,,,,,,,,,,,,,,,,,,,4977.850431500003,,,,,,,
