trials.thisRepN,trials.thisTrialN,trials.thisN,trials.thisIndex,trials_3.thisRepN,trials_3.thisTrialN,trials_3.thisN,trials_3.thisIndex,trials_6.thisRepN,trials_6.thisTrialN,trials_6.thisN,trials_6.thisIndex,trials_5.thisRepN,trials_5.thisTrialN,trials_5.thisN,trials_5.thisIndex,trials_4.thisRepN,trials_4.thisTrialN,trials_4.thisN,trials_4.thisIndex,trials_2.thisRepN,trials_2.thisTrialN,trials_2.thisN,trials_2.thisIndex,text_2.started,key_resp.started,key_resp.keys,key_resp.rt,text_4.started,text_4.stopped,InstructionsText.started,InstrucKey.started,InstrucKey.keys,InstrucKey.rt,ISI,ISI_text.started,dontrespond.started,dontrespond.stopped,ISI_text.stopped,dontrespond.keys,Targetstim.started,Response.started,Accuracy,RTms,Response.keys,Response.rt,Feedback_text.started,Feedback_text.stopped,text_6.started,key_resp_2.started,key_resp_2.keys,key_resp_2.rt,key_resp_4.started,text_7.started,key_resp_4.keys,key_resp_4.rt,text_14.started,key_resp_7.started,key_resp_7.keys,key_resp_7.rt,text_13.started,key_resp_6.started,key_resp_6.keys,key_resp_6.rt,text_3.started,participant,session,date,expName,psychopyVersion,frameRate,
,,,,,,,,,,,,,,,,,,,,,,,,22.116774299996905,22.116774299996905,space,1205.5609015999944,,,,,,,,,,,,,,,,,,,,,,,,,,,,,,,,,,,,,,cihan,001,2023-12-18_13h04.09.969,game,2022.2.5,59.96224776056681,
,,,,,,,,,,,,,,,,,,,,,,,,,,,,1227.7165832999744,1257.7180372999865,1257.7180372999865,1257.7180372999865,space,12.072702699981164,,,,,,,,,,,,,,,,,,,,,,,,,,,,,,,,cihan,001,2023-12-18_13h04.09.969,game,2022.2.5,59.96224776056681,
0,0,0,0,,,,,,,,,,,,,,,,,,,,,,,,,,,,,,,3,1269.8173135999823,1269.8173135999823,1271.8174331999617,1272.8177160999621,None,1272.8177160999621,1272.8177160999621,1,1037.3116999980994,space,1.0373116999980994,1273.8986857999698,1274.4003351999563,,,,,,,,,,,,,,,,,,cihan,001,2023-12-18_13h04.09.969,game,2022.2.5,59.96224776056681,
1,0,1,0,,,,,,,,,,,,,,,,,,,,,,,,,,,,,,,1,1274.4003351999563,1274.4003351999563,1274.4003351999563,1275.4011361000012,None,1275.4011361000012,1275.4011361000012,1,396.33600000524893,space,0.39633600000524893,1275.8183954000124,1276.3193500000052,,,,,,,,,,,,,,,,,,cihan,001,2023-12-18_13h04.09.969,game,2022.2.5,59.96224776056681,
2,0,2,0,,,,,,,,,,,,,,,,,,,,,,,,,,,,,,,2,1276.3193500000052,1276.3193500000052,1277.3330462999875,1278.3328600999666,None,1278.3328600999666,1278.3328600999666,1,353.66999998223037,space,0.35366999998223037,1278.7145592999877,1279.2311959000072,,,,,,,,,,,,,,,,,,cihan,001,2023-12-18_13h04.09.969,game,2022.2.5,59.96224776056681,
3,0,3,0,,,,,,,,,,,,,,,,,,,,,,,,,,,,,,,1,1279.2311959000072,1279.2311959000072,1279.2311959000072,1280.2333711999818,None,1280.2333711999818,1280.2333711999818,1,403.7452999618836,space,0.4037452999618836,1280.6641770999995,1281.1660174999852,,,,,,,,,,,,,,,,,,cihan,001,2023-12-18_13h04.09.969,game,2022.2.5,59.96224776056681,
4,0,4,0,,,,,,,,,,,,,,,,,,,,,,,,,,,,,,,2,1281.1660174999852,1281.1660174999852,1282.166234400007,1283.1664297999814,None,1283.1664297999814,1283.1664297999814,1,375.8496000082232,space,0.3758496000082232,1283.5811999999569,1284.0968645999674,,,,,,,,,,,,,,,,,,cihan,001,2023-12-18_13h04.09.969,game,2022.2.5,59.96224776056681,
5,0,5,0,,,,,,,,,,,,,,,,,,,,,,,,,,,,,,,4,1284.0968645999674,1284.0968645999674,1287.0993190999725,1288.1022047000006,None,1288.1022047000006,1288.1022047000006,1,454.8272000392899,space,0.4548272000392899,1288.5978082999936,1289.0988878000062,,,,,,,,,,,,,,,,,,cihan,001,2023-12-18_13h04.09.969,game,2022.2.5,59.96224776056681,
6,0,6,0,,,,,,,,,,,,,,,,,,,,,,,,,,,,,,,4,1289.0988878000062,1289.0988878000062,1292.0989521999727,1293.0986787999864,None,1293.0986787999864,1293.0986787999864,1,386.8693999829702,space,0.3868693999829702,1293.5140971000073,1294.0170139999827,,,,,,,,,,,,,,,,,,cihan,001,2023-12-18_13h04.09.969,game,2022.2.5,59.96224776056681,
7,0,7,0,,,,,,,,,,,,,,,,,,,,,,,,,,,,,,,2,1294.0170139999827,1294.0170139999827,1295.0169538999908,1296.0322188999853,None,1296.0322188999853,1296.0322188999853,1,380.83879998885095,space,0.38083879998885095,1296.4466121000005,1296.9484658999718,,,,,,,,,,,,,,,,,,cihan,001,2023-12-18_13h04.09.969,game,2022.2.5,59.96224776056681,
8,0,8,0,,,,,,,,,,,,,,,,,,,,,,,,,,,,,,,1,1296.9484658999718,1296.9484658999718,1296.9484658999718,1297.9486449999968,None,1297.9486449999968,1297.9486449999968,1,425.2812000340782,space,0.4252812000340782,1298.4133791999775,1298.9159787999815,,,,,,,,,,,,,,,,,,cihan,001,2023-12-18_13h04.09.969,game,2022.2.5,59.96224776056681,
9,0,9,0,,,,,,,,,,,,,,,,,,,,,,,,,,,,,,,2,1298.9159787999815,1298.9159787999815,1299.916410500009,1300.9148207000108,None,1300.9148207000108,1300.9148207000108,1,410.3118000202812,space,0.4103118000202812,1301.3632125000004,1301.8652887999779,,,,,,,,,,,,,,,,,,cihan,001,2023-12-18_13h04.09.969,game,2022.2.5,59.96224776056681,
10,0,10,0,,,,,,,,,,,,,,,,,,,,,,,,,,,,,,,3,1301.8652887999779,1301.8652887999779,1303.8691554999677,1304.864688600006,None,1304.864688600006,1304.864688600006,1,357.7134999795817,space,0.3577134999795817,1305.2631562000024,1305.7649863999686,,,,,,,,,,,,,,,,,,cihan,001,2023-12-18_13h04.09.969,game,2022.2.5,59.96224776056681,
11,0,11,0,,,,,,,,,,,,,,,,,,,,,,,,,,,,,,,2,1305.7649863999686,1305.7649863999686,1306.7647148999968,1307.765143800003,None,1307.765143800003,1307.765143800003,1,375.88479998521507,space,0.37588479998521507,1308.179475599958,1308.6822089999914,,,,,,,,,,,,,,,,,,cihan,001,2023-12-18_13h04.09.969,game,2022.2.5,59.96224776056681,
12,0,12,0,,,,,,,,,,,,,,,,,,,,,,,,,,,,,,,3,1308.6822089999914,1308.6822089999914,1310.6818271999946,1311.6820050000097,None,1311.6820050000097,1311.6820050000097,1,411.90090001327917,space,0.41190090001327917,1312.1285740999738,1312.6317767999717,,,,,,,,,,,,,,,,,,cihan,001,2023-12-18_13h04.09.969,game,2022.2.5,59.96224776056681,
13,0,13,0,,,,,,,,,,,,,,,,,,,,,,,,,,,,,,,2,1312.6317767999717,1312.6317767999717,1313.6327551999711,1314.631966099958,None,1314.631966099958,1314.631966099958,1,373.847900016699,space,0.373847900016699,1315.045290799986,1315.5479793999693,,,,,,,,,,,,,,,,,,cihan,001,2023-12-18_13h04.09.969,game,2022.2.5,59.96224776056681,
14,0,14,0,,,,,,,,,,,,,,,,,,,,,,,,,,,,,,,3,1315.5479793999693,1315.5479793999693,1317.5472924999776,1318.5471672999556,None,1318.5471672999556,1318.5471672999556,1,378.55870003113523,space,0.37855870003113523,1318.9619602999883,1319.4651765999733,,,,,,,,,,,,,,,,,,cihan,001,2023-12-18_13h04.09.969,game,2022.2.5,59.96224776056681,
15,0,15,0,,,,,,,,,,,,,,,,,,,,,,,,,,,,,,,1,1319.4651765999733,1319.4651765999733,1319.4651765999733,1320.4661658999976,None,1320.4661658999976,1320.4661658999976,1,427.38399998052046,space,0.42738399998052046,1320.929604600009,1321.4323506999644,,,,,,,,,,,,,,,,,,cihan,001,2023-12-18_13h04.09.969,game,2022.2.5,59.96224776056681,
16,0,16,0,,,,,,,,,,,,,,,,,,,,,,,,,,,,,,,3,1321.4323506999644,1321.4323506999644,1323.4481147999759,1324.430781700008,None,1324.430781700008,1324.430781700008,1,319.83620004029945,space,0.31983620004029945,1324.7950875000097,1325.3118841999676,,,,,,,,,,,,,,,,,,cihan,001,2023-12-18_13h04.09.969,game,2022.2.5,59.96224776056681,
17,0,17,0,,,,,,,,,,,,,,,,,,,,,,,,,,,,,,,2,1325.3118841999676,1325.3118841999676,1326.315188699984,1327.317961499968,None,1327.317961499968,1327.317961499968,1,343.98700000019744,space,0.34398700000019744,1327.6820091999834,1328.1973206999828,,,,,,,,,,,,,,,,,,cihan,001,2023-12-18_13h04.09.969,game,2022.2.5,59.96224776056681,
18,0,18,0,,,,,,,,,,,,,,,,,,,,,,,,,,,,,,,2,1328.1973206999828,1328.1973206999828,1329.1978173999814,1330.1972014000057,None,1330.1972014000057,1330.1972014000057,1,408.10520004015416,space,0.40810520004015416,1330.6455998999882,1331.1495484999614,,,,,,,,,,,,,,,,,,cihan,001,2023-12-18_13h04.09.969,game,2022.2.5,59.96224776056681,
19,0,19,0,,,,,,,,,,,,,,,,,,,,,,,,,,,,,,,3,1331.1495484999614,1331.1495484999614,1333.1637168999878,1334.164111799968,None,1334.164111799968,1334.164111799968,1,354.54850003588945,space,0.35454850003588945,1334.5611440999783,1335.0637812999776,,,,,,,,,,,,,,,,,,cihan,001,2023-12-18_13h04.09.969,game,2022.2.5,59.96224776056681,
20,0,20,0,,,,,,,,,,,,,,,,,,,,,,,,,,,,,,,4,1335.0637812999776,1335.0637812999776,1338.0635802999604,1339.078173399961,None,1339.078173399961,1339.078173399961,1,376.90069997916,space,0.37690069997916,1339.4942426999914,1339.9975282999803,,,,,,,,,,,,,,,,,,cihan,001,2023-12-18_13h04.09.969,game,2022.2.5,59.96224776056681,
21,0,21,0,,,,,,,,,,,,,,,,,,,,,,,,,,,,,,,3,1339.9975282999803,1339.9975282999803,1341.9964550999575,1343.0135170999565,None,1343.0135170999565,1343.0135170999565,1,359.76630001096055,space,0.35976630001096055,1343.3986681000097,1343.9148545999778,,,,,,,,,,,,,,,,,,cihan,001,2023-12-18_13h04.09.969,game,2022.2.5,59.96224776056681,
22,0,22,0,,,,,,,,,,,,,,,,,,,,,,,,,,,,,,,3,1343.9148545999778,1343.9148545999778,1345.9293531999574,1346.94355669996,None,1346.94355669996,1346.94355669996,1,342.28110004914925,space,0.34228110004914925,1347.3107649000012,1347.8125112999696,,,,,,,,,,,,,,,,,,cihan,001,2023-12-18_13h04.09.969,game,2022.2.5,59.96224776056681,
23,0,23,0,,,,,,,,,,,,,,,,,,,,,,,,,,,,,,,4,1347.8125112999696,1347.8125112999696,1350.8129252999788,1351.8135338999564,None,1351.8135338999564,1351.8135338999564,1,336.31669997703284,space,0.33631669997703284,1352.1795917999698,1352.6797474999912,,,,,,,,,,,,,,,,,,cihan,001,2023-12-18_13h04.09.969,game,2022.2.5,59.96224776056681,
24,0,24,0,,,,,,,,,,,,,,,,,,,,,,,,,,,,,,,3,1352.6797474999912,1352.6797474999912,1354.6955237999791,1355.6953948999871,None,1355.6953948999871,1355.6953948999871,1,357.90799994720146,space,0.35790799994720146,1356.0930819999776,1356.5955538999988,,,,,,,,,,,,,,,,,,cihan,001,2023-12-18_13h04.09.969,game,2022.2.5,59.96224776056681,
25,0,25,0,,,,,,,,,,,,,,,,,,,,,,,,,,,,,,,3,1356.5955538999988,1356.5955538999988,1358.595705499989,1359.5961277000024,None,1359.5961277000024,1359.5961277000024,1,353.2816999941133,space,0.3532816999941133,1359.9931291000103,1360.4950841999962,,,,,,,,,,,,,,,,,,cihan,001,2023-12-18_13h04.09.969,game,2022.2.5,59.96224776056681,
26,0,26,0,,,,,,,,,,,,,,,,,,,,,,,,,,,,,,,2,1360.4950841999962,1360.4950841999962,1361.4961822999758,1362.496039699996,None,1362.496039699996,1362.496039699996,1,390.26539999758825,space,0.39026539999758825,1362.9267578999861,1363.4287938000052,,,,,,,,,,,,,,,,,,cihan,001,2023-12-18_13h04.09.969,game,2022.2.5,59.96224776056681,
27,0,27,0,,,,,,,,,,,,,,,,,,,,,,,,,,,,,,,3,1363.4287938000052,1363.4287938000052,1365.430594299978,1366.4288380999933,None,1366.4288380999933,1366.4288380999933,1,360.7672999496572,space,0.36076729994965717,1366.8135485000093,1367.3145394999883,,,,,,,,,,,,,,,,,,cihan,001,2023-12-18_13h04.09.969,game,2022.2.5,59.96224776056681,
28,0,28,0,,,,,,,,,,,,,,,,,,,,,,,,,,,,,,,1,1367.3145394999883,1367.3145394999883,1367.3145394999883,1368.3118787999847,None,1368.3118787999847,1368.3118787999847,1,638.155100052245,space,0.638155100052245,1368.9762809000094,1369.478126699978,,,,,,,,,,,,,,,,,,cihan,001,2023-12-18_13h04.09.969,game,2022.2.5,59.96224776056681,
29,0,29,0,,,,,,,,,,,,,,,,,,,,,,,,,,,,,,,1,1369.478126699978,1369.478126699978,1369.478126699978,1370.4799143999699,None,1370.4799143999699,1370.4799143999699,1,397.95949996914715,space,0.39795949996914715,1370.9086598999565,1371.4122675000108,,,,,,,,,,,,,,,,,,cihan,001,2023-12-18_13h04.09.969,game,2022.2.5,59.96224776056681,
30,0,30,0,,,,,,,,,,,,,,,,,,,,,,,,,,,,,,,2,1371.4122675000108,1371.4122675000108,1372.4122526999563,1373.4257301999605,None,1373.4257301999605,1373.4257301999605,1,331.6173999919556,space,0.3316173999919556,1373.7926251000026,1374.2969722999842,,,,,,,,,,,,,,,,,,cihan,001,2023-12-18_13h04.09.969,game,2022.2.5,59.96224776056681,
31,0,31,0,,,,,,,,,,,,,,,,,,,,,,,,,,,,,,,1,1374.2969722999842,1374.2969722999842,1374.2969722999842,1375.3131862999871,None,1375.3131862999871,1375.3131862999871,1,396.5298999683,space,0.3965298999683,1375.742944800004,1376.2496618999867,,,,,,,,,,,,,,,,,,cihan,001,2023-12-18_13h04.09.969,game,2022.2.5,59.96224776056681,
32,0,32,0,,,,,,,,,,,,,,,,,,,,,,,,,,,,,,,3,1376.2496618999867,1376.2496618999867,1378.2614451000118,1379.2748379000113,None,1379.2748379000113,1379.2748379000113,1,346.8041999731213,space,0.3468041999731213,1379.6584973999998,1380.160720999993,,,,,,,,,,,,,,,,,,cihan,001,2023-12-18_13h04.09.969,game,2022.2.5,59.96224776056681,
33,0,33,0,,,,,,,,,,,,,,,,,,,,,,,,,,,,,,,1,1380.160720999993,1380.160720999993,1380.160720999993,1381.1608373000054,None,1381.1608373000054,1381.1608373000054,1,445.297300000675,space,0.445297300000675,1381.6420649999636,1382.1439699999755,,,,,,,,,,,,,,,,,,cihan,001,2023-12-18_13h04.09.969,game,2022.2.5,59.96224776056681,
34,0,34,0,,,,,,,,,,,,,,,,,,,,,,,,,,,,,,,3,1382.1439699999755,1382.1439699999755,1384.144531500002,1385.1449531000108,None,1385.1449531000108,1385.1449531000108,1,341.23119997093454,space,0.34123119997093454,1385.5252000999753,1386.027896399959,,,,,,,,,,,,,,,,,,cihan,001,2023-12-18_13h04.09.969,game,2022.2.5,59.96224776056681,
35,0,35,0,,,,,,,,,,,,,,,,,,,,,,,,,,,,,,,4,1386.027896399959,1386.027896399959,1389.0274575999938,1390.0429654999753,None,1390.0429654999753,1390.0429654999753,1,362.76739998720586,space,0.36276739998720586,1390.4468804000062,1390.9449613000033,,,,,,,,,,,,,,,,,,cihan,001,2023-12-18_13h04.09.969,game,2022.2.5,59.96224776056681,
36,0,36,0,,,,,,,,,,,,,,,,,,,,,,,,,,,,,,,1,1390.9449613000033,1390.9449613000033,1390.9449613000033,1391.9585088999593,None,1391.9585088999593,1391.9585088999593,1,495.6815000041388,space,0.4956815000041388,1392.4784893000033,1392.9784501999966,,,,,,,,,,,,,,,,,,cihan,001,2023-12-18_13h04.09.969,game,2022.2.5,59.96224776056681,
37,0,37,0,,,,,,,,,,,,,,,,,,,,,,,,,,,,,,,4,1392.9784501999966,1392.9784501999966,1395.9940810999833,1396.9968997999677,None,1396.9968997999677,1396.9968997999677,1,352.7443000348285,space,0.3527443000348285,1397.3748539999942,1397.8773283999762,,,,,,,,,,,,,,,,,,cihan,001,2023-12-18_13h04.09.969,game,2022.2.5,59.96224776056681,
38,0,38,0,,,,,,,,,,,,,,,,,,,,,,,,,,,,,,,4,1397.8773283999762,1397.8773283999762,1400.8765840000124,1401.8902127000038,None,1401.8902127000038,1401.8902127000038,1,379.78999997721985,space,0.37978999997721985,1402.2909270999953,1402.7960846999777,,,,,,,,,,,,,,,,,,cihan,001,2023-12-18_13h04.09.969,game,2022.2.5,59.96224776056681,
39,0,39,0,,,,,,,,,,,,,,,,,,,,,,,,,,,,,,,1,1402.7960846999777,1402.7960846999777,1402.7960846999777,1403.807903799985,None,1403.807903799985,1403.807903799985,1,454.5058000367135,space,0.4545058000367135,1404.2912416000036,1404.794807499973,,,,,,,,,,,,,,,,,,cihan,001,2023-12-18_13h04.09.969,game,2022.2.5,59.96224776056681,
40,0,40,0,,,,,,,,,,,,,,,,,,,,,,,,,,,,,,,4,1404.794807499973,1404.794807499973,1407.8096515999641,1408.8091781999683,None,1408.8091781999683,1408.8091781999683,1,356.6088000079617,space,0.3566088000079617,1409.2073916000081,1409.7094724999624,,,,,,,,,,,,,,,,,,cihan,001,2023-12-18_13h04.09.969,game,2022.2.5,59.96224776056681,
41,0,41,0,,,,,,,,,,,,,,,,,,,,,,,,,,,,,,,3,1409.7094724999624,1409.7094724999624,1411.7113997999695,1412.7096323999576,None,1412.7096323999576,1412.7096323999576,1,376.0474000009708,space,0.3760474000009708,1413.1231792999897,1413.6273351999698,,,,,,,,,,,,,,,,,,cihan,001,2023-12-18_13h04.09.969,game,2022.2.5,59.96224776056681,
42,0,42,0,,,,,,,,,,,,,,,,,,,,,,,,,,,,,,,4,1413.6273351999698,1413.6273351999698,1416.6256458999706,1417.6394344999571,None,1417.6394344999571,1417.6394344999571,1,366.1906999768689,space,0.3661906999768689,1418.0401608999819,1418.5431075000088,,,,,,,,,,,,,,,,,,cihan,001,2023-12-18_13h04.09.969,game,2022.2.5,59.96224776056681,
43,0,43,0,,,,,,,,,,,,,,,,,,,,,,,,,,,,,,,3,1418.5431075000088,1418.5431075000088,1420.5419982000021,1421.5422394999769,None,1421.5422394999769,1421.5422394999769,1,352.0071000093594,space,0.3520071000093594,1421.922781799978,1422.4274510999676,,,,,,,,,,,,,,,,,,cihan,001,2023-12-18_13h04.09.969,game,2022.2.5,59.96224776056681,
,,,,,,,,,,,,,,,,,,,,,,,,,,,,,,,,,,,,,,,,,,,,,,,,1422.4274510999676,1422.4274510999676,space,11.170349399966653,,,,,,,,,,,,,,cihan,001,2023-12-18_13h04.09.969,game,2022.2.5,59.96224776056681,
,,,,0,0,0,0,,,,,,,,,,,,,,,,,,,,,,,,,,,,,,,,,,,,,,,,,,,,,1433.6391001999727,1433.6391001999727,num_0,3.143181999970693,,,,,,,,,,cihan,001,2023-12-18_13h04.09.969,game,2022.2.5,59.96224776056681,
,,,,1,0,1,0,,,,,,,,,,,,,,,,,,,,,,,,,,,,,,,,,,,,,,,,,,,,,1437.2388718999573,1437.2388718999573,num_2,11.623823500005528,,,,,,,,,,cihan,001,2023-12-18_13h04.09.969,game,2022.2.5,59.96224776056681,
,,,,2,0,2,0,,,,,,,,,,,,,,,,,,,,,,,,,,,,,,,,,,,,,,,,,,,,,1449.3046280000126,1449.3046280000126,num_2,3.2776713999919593,,,,,,,,,,cihan,001,2023-12-18_13h04.09.969,game,2022.2.5,59.96224776056681,
,,,,3,0,3,0,,,,,,,,,,,,,,,,,,,,,,,,,,,,,,,,,,,,,,,,,,,,,1453.0206727999612,1453.0206727999612,num_3,2.570140000025276,,,,,,,,,,cihan,001,2023-12-18_13h04.09.969,game,2022.2.5,59.96224776056681,
,,,,4,0,4,0,,,,,,,,,,,,,,,,,,,,,,,,,,,,,,,,,,,,,,,,,,,,,1456.0714732999913,1456.0714732999913,num_8,3.3432054999866523,,,,,,,,,,cihan,001,2023-12-18_13h04.09.969,game,2022.2.5,59.96224776056681,
,,,,5,0,5,0,,,,,,,,,,,,,,,,,,,,,,,,,,,,,,,,,,,,,,,,,,,,,1459.871749599988,1459.871749599988,num_0,3.638053000031505,,,,,,,,,,cihan,001,2023-12-18_13h04.09.969,game,2022.2.5,59.96224776056681,
,,,,6,0,6,0,,,,,,,,,,,,,,,,,,,,,,,,,,,,,,,,,,,,,,,,,,,,,1463.9711193999974,1463.9711193999974,num_5,4.50067229999695,,,,,,,,,,cihan,001,2023-12-18_13h04.09.969,game,2022.2.5,59.96224776056681,
,,,,7,0,7,0,,,,,,,,,,,,,,,,,,,,,,,,,,,,,,,,,,,,,,,,,,,,,1468.8872401000117,1468.8872401000117,num_9,12.815509100037161,,,,,,,,,,cihan,001,2023-12-18_13h04.09.969,game,2022.2.5,59.96224776056681,
,,,,8,0,8,0,,,,,,,,,,,,,,,,,,,,,,,,,,,,,,,,,,,,,,,,,,,,,1482.1619794999715,1482.1619794999715,num_7,2.276758299965877,,,,,,,,,,cihan,001,2023-12-18_13h04.09.969,game,2022.2.5,59.96224776056681,
,,,,9,0,9,0,,,,,,,,,,,,,,,,,,,,,,,,,,,,,,,,,,,,,,,,,,,,,1484.921112000011,1484.921112000011,num_9,2.765086799976416,,,,,,,,,,cihan,001,2023-12-18_13h04.09.969,game,2022.2.5,59.96224776056681,
,,,,10,0,10,0,,,,,,,,,,,,,,,,,,,,,,,,,,,,,,,,,,,,,,,,,,,,,1488.1362122999853,1488.1362122999853,num_7,3.4541246999870054,,,,,,,,,,cihan,001,2023-12-18_13h04.09.969,game,2022.2.5,59.96224776056681,
,,,,11,0,11,0,,,,,,,,,,,,,,,,,,,,,,,,,,,,,,,,,,,,,,,,,,,,,1492.0697385999956,1492.0697385999956,num_6,3.2412052000290714,,,,,,,,,,cihan,001,2023-12-18_13h04.09.969,game,2022.2.5,59.96224776056681,
,,,,12,0,12,0,,,,,,,,,,,,,,,,,,,,,,,,,,,,,,,,,,,,,,,,,,,,,1495.7526814999874,1495.7526814999874,num_7,16.549781899957452,,,,,,,,,,cihan,001,2023-12-18_13h04.09.969,game,2022.2.5,59.96224776056681,
,,,,13,0,13,0,,,,,,,,,,,,,,,,,,,,,,,,,,,,,,,,,,,,,,,,,,,,,1512.7515246999683,1512.7515246999683,num_5,2.918942300020717,,,,,,,,,,cihan,001,2023-12-18_13h04.09.969,game,2022.2.5,59.96224776056681,
,,,,14,0,14,0,,,,,,,,,,,,,,,,,,,,,,,,,,,,,,,,,,,,,,,,,,,,,1516.101458399964,1516.101458399964,num_7,3.5610828999779187,,,,,,,,,,cihan,001,2023-12-18_13h04.09.969,game,2022.2.5,59.96224776056681,
,,,,15,0,15,0,,,,,,,,,,,,,,,,,,,,,,,,,,,,,,,,,,,,,,,,,,,,,1520.1536654999945,1520.1536654999945,num_4,4.757236100034788,,,,,,,,,,cihan,001,2023-12-18_13h04.09.969,game,2022.2.5,59.96224776056681,
,,,,16,0,16,0,,,,,,,,,,,,,,,,,,,,,,,,,,,,,,,,,,,,,,,,,,,,,1525.3513722000062,1525.3513722000062,num_7,3.6876694999518804,,,,,,,,,,cihan,001,2023-12-18_13h04.09.969,game,2022.2.5,59.96224776056681,
,,,,17,0,17,0,,,,,,,,,,,,,,,,,,,,,,,,,,,,,,,,,,,,,,,,,,,,,1529.5173697999562,1529.5173697999562,num_0,1.5382177000283264,,,,,,,,,,cihan,001,2023-12-18_13h04.09.969,game,2022.2.5,59.96224776056681,
,,,,18,0,18,0,,,,,,,,,,,,,,,,,,,,,,,,,,,,,,,,,,,,,,,,,,,,,1531.5005866999854,1531.5005866999854,num_2,6.394174600020051,,,,,,,,,,cihan,001,2023-12-18_13h04.09.969,game,2022.2.5,59.96224776056681,
,,,,19,0,19,0,,,,,,,,,,,,,,,,,,,,,,,,,,,,,,,,,,,,,,,,,,,,,1538.31726479996,1538.31726479996,num_9,4.5772031000233255,,,,,,,,,,cihan,001,2023-12-18_13h04.09.969,game,2022.2.5,59.96224776056681,
,,,,20,0,20,0,,,,,,,,,,,,,,,,,,,,,,,,,,,,,,,,,,,,,,,,,,,,,1543.3665287999902,1543.3665287999902,num_2,6.752360999991652,,,,,,,,,,cihan,001,2023-12-18_13h04.09.969,game,2022.2.5,59.96224776056681,
,,,,21,0,21,0,,,,,,,,,,,,,,,,,,,,,,,,,,,,,,,,,,,,,,,,,,,,,1550.5662425999762,1550.5662425999762,num_0,3.1523190999869257,,,,,,,,,,cihan,001,2023-12-18_13h04.09.969,game,2022.2.5,59.96224776056681,
,,,,22,0,22,0,,,,,,,,,,,,,,,,,,,,,,,,,,,,,,,,,,,,,,,,,,,,,1554.151982899988,1554.151982899988,num_8,4.3673346999567,,,,,,,,,,cihan,001,2023-12-18_13h04.09.969,game,2022.2.5,59.96224776056681,
,,,,23,0,23,0,,,,,,,,,,,,,,,,,,,,,,,,,,,,,,,,,,,,,,,,,,,,,1558.9678008999908,1558.9678008999908,num_7,1.7522393999970518,,,,,,,,,,cihan,001,2023-12-18_13h04.09.969,game,2022.2.5,59.96224776056681,
,,,,24,0,24,0,,,,,,,,,,,,,,,,,,,,,,,,,,,,,,,,,,,,,,,,,,,,,1561.2323459999752,1561.2323459999752,num_3,2.3262231000117026,,,,,,,,,,cihan,001,2023-12-18_13h04.09.969,game,2022.2.5,59.96224776056681,
,,,,25,0,25,0,,,,,,,,,,,,,,,,,,,,,,,,,,,,,,,,,,,,,,,,,,,,,1564.0156621999922,1564.0156621999922,num_4,2.1516545999911614,,,,,,,,,,cihan,001,2023-12-18_13h04.09.969,game,2022.2.5,59.96224776056681,
,,,,26,0,26,0,,,,,,,,,,,,,,,,,,,,,,,,,,,,,,,,,,,,,,,,,,,,,1566.618021000002,1566.618021000002,num_4,7.245015599997714,,,,,,,,,,cihan,001,2023-12-18_13h04.09.969,game,2022.2.5,59.96224776056681,
,,,,27,0,27,0,,,,,,,,,,,,,,,,,,,,,,,,,,,,,,,,,,,,,,,,,,,,,1574.2978643999668,1574.2978643999668,num_5,5.493183800019324,,,,,,,,,,cihan,001,2023-12-18_13h04.09.969,game,2022.2.5,59.96224776056681,
,,,,28,0,28,0,,,,,,,,,,,,,,,,,,,,,,,,,,,,,,,,,,,,,,,,,,,,,1580.2483479999937,1580.2483479999937,num_1,2.3745784999919124,,,,,,,,,,cihan,001,2023-12-18_13h04.09.969,game,2022.2.5,59.96224776056681,
,,,,,,,,,,,,,,,,,,,,,,,,,,,,,,,,,,,,,,,,,,,,,,,,,,,,,,,,1583.6479911999777,1583.6479911999777,space,2.7836633000406437,,,,,,cihan,001,2023-12-18_13h04.09.969,game,2022.2.5,59.96224776056681,
,,,,,,,,,,,,,,,,,,,,,,,,,,,,,,,,,,,,,,,,,,,,,,,,,,,,,,,,,,,,2955.37481129996,2955.37481129996,space,12.688470799999777,,cihan,001,2023-12-18_13h04.09.969,game,2022.2.5,59.96224776056681,
,,,,,,,,,,,,,,,,,,,,,,,,,,,,,,2968.091722699988,2968.091722699988,space,5.931674699997529,,,,,,,,,,,,,,,,,,,,,,,,,,,,,,,,cihan,001,2023-12-18_13h04.09.969,game,2022.2.5,59.96224776056681,
,,,,,,,,0,0,0,0,,,,,,,,,,,,,,,,,,,,,,,2,2974.0415593999787,2974.0415593999787,2975.042287999997,2976.0421215000097,None,2976.0421215000097,2976.0421215000097,1,757.1693999925628,space,0.7571693999925628,2976.8388695999747,2977.341292099969,,,,,,,,,,,,,,,,,,cihan,001,2023-12-18_13h04.09.969,game,2022.2.5,59.96224776056681,
,,,,,,,,1,0,1,0,,,,,,,,,,,,,,,,,,,,,,,4,2977.341292099969,2977.341292099969,2980.3410493999836,2981.341336899961,None,2981.341336899961,2981.341336899961,1,482.69659996731207,space,0.48269659996731207,2981.8552042999654,2982.3575241999933,,,,,,,,,,,,,,,,,,cihan,001,2023-12-18_13h04.09.969,game,2022.2.5,59.96224776056681,
,,,,,,,,2,0,2,0,,,,,,,,,,,,,,,,,,,,,,,3,2982.3575241999933,2982.3575241999933,2984.358317199978,2985.357423699985,None,2985.357423699985,2985.357423699985,1,410.91550001874566,space,0.41091550001874566,2985.791092199972,2986.29151369998,,,,,,,,,,,,,,,,,,cihan,001,2023-12-18_13h04.09.969,game,2022.2.5,59.96224776056681,
,,,,,,,,3,0,3,0,,,,,,,,,,,,,,,,,,,,,,,2,2986.29151369998,2986.29151369998,2987.29156719998,2988.3072106000036,None,2988.3072106000036,2988.3072106000036,1,677.0845000282861,space,0.6770845000282861,2989.022656999994,2989.524776700011,,,,,,,,,,,,,,,,,,cihan,001,2023-12-18_13h04.09.969,game,2022.2.5,59.96224776056681,
,,,,,,,,4,0,4,0,,,,,,,,,,,,,,,,,,,,,,,3,2989.524776700011,2989.524776700011,2991.5241182000027,2992.523383199994,None,2992.523383199994,2992.523383199994,1,365.30710000079125,space,0.36530710000079125,2992.920911399997,2993.427242100006,,,,,,,,,,,,,,,,,,cihan,001,2023-12-18_13h04.09.969,game,2022.2.5,59.96224776056681,
,,,,,,,,5,0,5,0,,,,,,,,,,,,,,,,,,,,,,,3,2993.427242100006,2993.427242100006,2995.440691899974,2996.4411115999683,None,2996.4411115999683,2996.4411115999683,1,591.8974000378512,space,0.5918974000378512,2997.07285940001,2997.575405200012,,,,,,,,,,,,,,,,,,cihan,001,2023-12-18_13h04.09.969,game,2022.2.5,59.96224776056681,
,,,,,,,,6,0,6,0,,,,,,,,,,,,,,,,,,,,,,,4,2997.575405200012,2997.575405200012,3000.5906183999614,3001.5903587999637,None,3001.5903587999637,3001.5903587999637,1,369.7006999864243,space,0.3697006999864243,3001.9876429999713,3002.4903331999667,,,,,,,,,,,,,,,,,,cihan,001,2023-12-18_13h04.09.969,game,2022.2.5,59.96224776056681,
,,,,,,,,7,0,7,0,,,,,,,,,,,,,,,,,,,,,,,4,3002.4903331999667,3002.4903331999667,3005.490268099995,3006.4902730999747,None,3006.4902730999747,3006.4902730999747,1,645.3465999802575,space,0.6453465999802575,3007.169966199959,3007.6733228999656,,,,,,,,,,,,,,,,,,cihan,001,2023-12-18_13h04.09.969,game,2022.2.5,59.96224776056681,
,,,,,,,,8,0,8,0,,,,,,,,,,,,,,,,,,,,,,,4,3007.6733228999656,3007.6733228999656,3010.6732478999766,3011.6731081999606,None,3011.6731081999606,3011.6731081999606,1,415.4180000186898,space,0.4154180000186898,3012.121694899979,3012.6376090999693,,,,,,,,,,,,,,,,,,cihan,001,2023-12-18_13h04.09.969,game,2022.2.5,59.96224776056681,
,,,,,,,,9,0,9,0,,,,,,,,,,,,,,,,,,,,,,,2,3012.6376090999693,3012.6376090999693,3013.6423100999673,3014.6401050999993,None,3014.6401050999993,3014.6401050999993,1,736.7647000355646,space,0.7367647000355646,3015.4029634000035,3015.906133899989,,,,,,,,,,,,,,,,,,cihan,001,2023-12-18_13h04.09.969,game,2022.2.5,59.96224776056681,
,,,,,,,,10,0,10,0,,,,,,,,,,,,,,,,,,,,,,,2,3015.906133899989,3015.906133899989,3016.9061884999974,3017.9059719999786,None,3017.9059719999786,3017.9059719999786,1,422.60529997292906,space,0.42260529997292906,3018.369491599966,3018.8747811999638,,,,,,,,,,,,,,,,,,cihan,001,2023-12-18_13h04.09.969,game,2022.2.5,59.96224776056681,
,,,,,,,,11,0,11,0,,,,,,,,,,,,,,,,,,,,,,,1,3018.8747811999638,3018.8747811999638,3018.8747811999638,3019.8894472999964,None,3019.8894472999964,3019.8894472999964,1,702.6716999826021,space,0.7026716999826021,3020.619543000008,3021.122729499999,,,,,,,,,,,,,,,,,,cihan,001,2023-12-18_13h04.09.969,game,2022.2.5,59.96224776056681,
,,,,,,,,12,0,12,0,,,,,,,,,,,,,,,,,,,,,,,3,3021.122729499999,3021.122729499999,3023.1219431000063,3024.1218429,None,3024.1218429,3024.1218429,1,391.0318000125699,space,0.3910318000125699,3024.553162599972,3025.055673900002,,,,,,,,,,,,,,,,,,cihan,001,2023-12-18_13h04.09.969,game,2022.2.5,59.96224776056681,
,,,,,,,,13,0,13,0,,,,,,,,,,,,,,,,,,,,,,,4,3025.055673900002,3025.055673900002,3028.0563859000104,3029.068882099993,None,3029.068882099993,3029.068882099993,1,643.2361000333913,space,0.6432361000333913,3029.7521923999884,3030.2553398999735,,,,,,,,,,,,,,,,,,cihan,001,2023-12-18_13h04.09.969,game,2022.2.5,59.96224776056681,
,,,,,,,,14,0,14,0,,,,,,,,,,,,,,,,,,,,,,,3,3030.2553398999735,3030.2553398999735,3032.254899499996,3033.254906499991,None,3033.254906499991,3033.254906499991,1,393.0195999564603,space,0.3930195999564603,3033.6874700000044,3034.1882355000125,,,,,,,,,,,,,,,,,,cihan,001,2023-12-18_13h04.09.969,game,2022.2.5,59.96224776056681,
,,,,,,,,15,0,15,0,,,,,,,,,,,,,,,,,,,,,,,1,3034.1882355000125,3034.1882355000125,3034.1882355000125,3035.1881098999875,None,3035.1881098999875,3035.1881098999875,1,565.571999992244,space,0.565571999992244,3035.785778499965,3036.2897201000014,,,,,,,,,,,,,,,,,,cihan,001,2023-12-18_13h04.09.969,game,2022.2.5,59.96224776056681,
,,,,,,,,16,0,16,0,,,,,,,,,,,,,,,,,,,,,,,4,3036.2897201000014,3036.2897201000014,3039.304881499964,3040.3052439999883,None,3040.3052439999883,3040.3052439999883,1,592.1605000039563,space,0.5921605000039563,3040.9349042999675,3041.437504599977,,,,,,,,,,,,,,,,,,cihan,001,2023-12-18_13h04.09.969,game,2022.2.5,59.96224776056681,
,,,,,,,,17,0,17,0,,,,,,,,,,,,,,,,,,,,,,,4,3041.437504599977,3041.437504599977,3044.4382654000074,3045.438946500013,None,3045.438946500013,3045.438946500013,1,450.1468000235036,space,0.4501468000235036,3045.917973099975,3046.4244894000003,,,,,,,,,,,,,,,,,,cihan,001,2023-12-18_13h04.09.969,game,2022.2.5,59.96224776056681,
,,,,,,,,18,0,18,0,,,,,,,,,,,,,,,,,,,,,,,3,3046.4244894000003,3046.4244894000003,3048.4380493999925,3049.438338799984,None,3049.438338799984,3049.438338799984,1,665.8884999924339,space,0.6658884999924339,3050.13740149996,3050.638155599998,,,,,,,,,,,,,,,,,,cihan,001,2023-12-18_13h04.09.969,game,2022.2.5,59.96224776056681,
,,,,,,,,19,0,19,0,,,,,,,,,,,,,,,,,,,,,,,3,3050.638155599998,3050.638155599998,3052.6542018000036,3053.6535607000114,None,3053.6535607000114,3053.6535607000114,1,802.2954000043683,space,0.8022954000043683,3054.4843978999997,3054.9869499999913,,,,,,,,,,,,,,,,,,cihan,001,2023-12-18_13h04.09.969,game,2022.2.5,59.96224776056681,
,,,,,,,,20,0,20,0,,,,,,,,,,,,,,,,,,,,,,,3,3054.9869499999913,3054.9869499999913,3056.9869266999885,3057.9866809999803,None,3057.9866809999803,3057.9866809999803,1,405.29560000868514,space,0.40529560000868514,3058.4358958000084,3058.9420017999946,,,,,,,,,,,,,,,,,,cihan,001,2023-12-18_13h04.09.969,game,2022.2.5,59.96224776056681,
,,,,,,,,21,0,21,0,,,,,,,,,,,,,,,,,,,,,,,4,3058.9420017999946,3058.9420017999946,3061.9537634999724,3062.9531327000004,None,3062.9531327000004,3062.9531327000004,1,647.1449000528082,space,0.6471449000528082,3063.652442999999,3064.1568892999785,,,,,,,,,,,,,,,,,,cihan,001,2023-12-18_13h04.09.969,game,2022.2.5,59.96224776056681,
,,,,,,,,22,0,22,0,,,,,,,,,,,,,,,,,,,,,,,3,3064.1568892999785,3064.1568892999785,3066.1703825999866,3067.1701324000023,None,3067.1701324000023,3067.1701324000023,1,493.87130001559854,space,0.49387130001559854,3067.7003908999613,3068.2042961000116,,,,,,,,,,,,,,,,,,cihan,001,2023-12-18_13h04.09.969,game,2022.2.5,59.96224776056681,
,,,,,,,,23,0,23,0,,,,,,,,,,,,,,,,,,,,,,,4,3068.2042961000116,3068.2042961000116,3071.202761899971,3072.2200627999846,None,3072.2200627999846,3072.2200627999846,1,804.2078000144102,space,0.8042078000144102,3073.0664368,3073.5690877999878,,,,,,,,,,,,,,,,,,cihan,001,2023-12-18_13h04.09.969,game,2022.2.5,59.96224776056681,
,,,,,,,,24,0,24,0,,,,,,,,,,,,,,,,,,,,,,,1,3073.5690877999878,3073.5690877999878,3073.5690877999878,3074.5691115999944,None,3074.5691115999944,3074.5691115999944,1,544.2015000153333,space,0.5442015000153333,3075.149685100012,3075.6526956000016,,,,,,,,,,,,,,,,,,cihan,001,2023-12-18_13h04.09.969,game,2022.2.5,59.96224776056681,
,,,,,,,,25,0,25,0,,,,,,,,,,,,,,,,,,,,,,,4,3075.6526956000016,3075.6526956000016,3078.652390000003,3079.6553383999853,None,3079.6553383999853,3079.6553383999853,1,560.9973999671638,space,0.5609973999671638,3080.2501364999916,3080.752460699994,,,,,,,,,,,,,,,,,,cihan,001,2023-12-18_13h04.09.969,game,2022.2.5,59.96224776056681,
,,,,,,,,26,0,26,0,,,,,,,,,,,,,,,,,,,,,,,3,3080.752460699994,3080.752460699994,3082.754031599965,3083.7528226999566,None,3083.7528226999566,3083.7528226999566,1,575.654799991753,space,0.575654799991753,3084.3497628999758,3084.865885099978,,,,,,,,,,,,,,,,,,cihan,001,2023-12-18_13h04.09.969,game,2022.2.5,59.96224776056681,
,,,,,,,,27,0,27,0,,,,,,,,,,,,,,,,,,,,,,,2,3084.865885099978,3084.865885099978,3085.8705453999573,3086.872026900004,None,3086.872026900004,3086.872026900004,1,528.7198000005446,space,0.5287198000005446,3087.4323554000002,3087.935328599997,,,,,,,,,,,,,,,,,,cihan,001,2023-12-18_13h04.09.969,game,2022.2.5,59.96224776056681,
,,,,,,,,28,0,28,0,,,,,,,,,,,,,,,,,,,,,,,1,3087.935328599997,3087.935328599997,3087.935328599997,3088.9389298000024,None,3088.9389298000024,3088.9389298000024,1,589.9253999814391,space,0.5899253999814391,3089.5657256999984,3090.068428199971,,,,,,,,,,,,,,,,,,cihan,001,2023-12-18_13h04.09.969,game,2022.2.5,59.96224776056681,
,,,,,,,,29,0,29,0,,,,,,,,,,,,,,,,,,,,,,,4,3090.068428199971,3090.068428199971,3093.068009199982,3094.068282299966,None,3094.068282299966,3094.068282299966,1,444.1936999792233,space,0.4441936999792233,3094.5492318999604,3095.052784300002,,,,,,,,,,,,,,,,,,cihan,001,2023-12-18_13h04.09.969,game,2022.2.5,59.96224776056681,
,,,,,,,,30,0,30,0,,,,,,,,,,,,,,,,,,,,,,,3,3095.052784300002,3095.052784300002,3097.0538608999923,3098.0512226999854,None,3098.0512226999854,3098.0512226999854,1,484.9545999895781,space,0.48495459998957813,3098.5820772000006,3099.084490599984,,,,,,,,,,,,,,,,,,cihan,001,2023-12-18_13h04.09.969,game,2022.2.5,59.96224776056681,
,,,,,,,,31,0,31,0,,,,,,,,,,,,,,,,,,,,,,,3,3099.084490599984,3099.084490599984,3101.0843788000057,3102.0844111999613,None,3102.0844111999613,3102.0844111999613,1,676.0778999887407,space,0.6760778999887407,3102.7980585999903,3103.3021880000015,,,,,,,,,,,,,,,,,,cihan,001,2023-12-18_13h04.09.969,game,2022.2.5,59.96224776056681,
,,,,,,,,32,0,32,0,,,,,,,,,,,,,,,,,,,,,,,3,3103.3021880000015,3103.3021880000015,3105.3037835999858,3106.302682699985,None,3106.302682699985,3106.302682699985,1,514.3352999584749,space,0.5143352999584749,3106.8494608000037,3107.35066549998,,,,,,,,,,,,,,,,,,cihan,001,2023-12-18_13h04.09.969,game,2022.2.5,59.96224776056681,
,,,,,,,,33,0,33,0,,,,,,,,,,,,,,,,,,,,,,,4,3107.35066549998,3107.35066549998,3110.351267399965,3111.3505128999823,None,3111.3505128999823,3111.3505128999823,1,626.5280000516213,space,0.6265280000516213,3112.0147336999653,3112.516999299987,,,,,,,,,,,,,,,,,,cihan,001,2023-12-18_13h04.09.969,game,2022.2.5,59.96224776056681,
,,,,,,,,34,0,34,0,,,,,,,,,,,,,,,,,,,,,,,2,3112.516999299987,3112.516999299987,3113.5174160999595,3114.5173468999565,None,3114.5173468999565,3114.5173468999565,1,498.9900999935344,space,0.4989900999935344,3115.047824600013,3115.5504707999644,,,,,,,,,,,,,,,,,,cihan,001,2023-12-18_13h04.09.969,game,2022.2.5,59.96224776056681,
,,,,,,,,35,0,35,0,,,,,,,,,,,,,,,,,,,,,,,1,3115.5504707999644,3115.5504707999644,3115.5504707999644,3116.5500222999835,None,3116.5500222999835,3116.5500222999835,1,772.0730999717489,space,0.7720730999717489,3117.3644378999597,3117.8665931999567,,,,,,,,,,,,,,,,,,cihan,001,2023-12-18_13h04.09.969,game,2022.2.5,59.96224776056681,
,,,,,,,,36,0,36,0,,,,,,,,,,,,,,,,,,,,,,,3,3117.8665931999567,3117.8665931999567,3119.866811899992,3120.866923399968,None,3120.866923399968,3120.866923399968,1,614.3178000347689,space,0.6143178000347689,3121.514274999965,3122.0169833999826,,,,,,,,,,,,,,,,,,cihan,001,2023-12-18_13h04.09.969,game,2022.2.5,59.96224776056681,
,,,,,,,,37,0,37,0,,,,,,,,,,,,,,,,,,,,,,,3,3122.0169833999826,3122.0169833999826,3124.016602399992,3125.016664900002,None,3125.016664900002,3125.016664900002,1,599.5154000120237,space,0.5995154000120237,3125.6343026999966,3126.134158700006,,,,,,,,,,,,,,,,,,cihan,001,2023-12-18_13h04.09.969,game,2022.2.5,59.96224776056681,
,,,,,,,,,,,,,,,,,,,,,,,,,,,,,,,,,,,,,,,,,,,,,,,,3126.134158700006,3126.134158700006,space,8.43420730001526,,,,,,,,,,,,,,cihan,001,2023-12-18_13h04.09.969,game,2022.2.5,59.96224776056681,
,,,,,,,,,,,,0,0,0,0,,,,,,,,,,,,,,,,,,,,,,,,,,,,,,,,,,,,,3134.613263099978,3134.613263099978,num_6,6.291926500038244,,,,,,,,,,cihan,001,2023-12-18_13h04.09.969,game,2022.2.5,59.96224776056681,
,,,,,,,,,,,,1,0,1,0,,,,,,,,,,,,,,,,,,,,,,,,,,,,,,,,,,,,,3141.363821899984,3141.363821899984,num_9,4.117991400009487,,,,,,,,,,cihan,001,2023-12-18_13h04.09.969,game,2022.2.5,59.96224776056681,
,,,,,,,,,,,,2,0,2,0,,,,,,,,,,,,,,,,,,,,,,,,,,,,,,,,,,,,,3145.930134299968,3145.930134299968,num_1,3.0950967999524437,,,,,,,,,,cihan,001,2023-12-18_13h04.09.969,game,2022.2.5,59.96224776056681,
,,,,,,,,,,,,3,0,3,0,,,,,,,,,,,,,,,,,,,,,,,,,,,,,,,,,,,,,3149.380280499987,3149.380280499987,num_2,2.028661300020758,,,,,,,,,,cihan,001,2023-12-18_13h04.09.969,game,2022.2.5,59.96224776056681,
,,,,,,,,,,,,4,0,4,0,,,,,,,,,,,,,,,,,,,,,,,,,,,,,,,,,,,,,3151.8636993999826,3151.8636993999826,num_4,1.6811274999636225,,,,,,,,,,cihan,001,2023-12-18_13h04.09.969,game,2022.2.5,59.96224776056681,
,,,,,,,,,,,,5,0,5,0,,,,,,,,,,,,,,,,,,,,,,,,,,,,,,,,,,,,,3154.0137737999903,3154.0137737999903,num_7,4.379399999976158,,,,,,,,,,cihan,001,2023-12-18_13h04.09.969,game,2022.2.5,59.96224776056681,
,,,,,,,,,,,,6,0,6,0,,,,,,,,,,,,,,,,,,,,,,,,,,,,,,,,,,,,,3158.86561779998,3158.86561779998,num_9,2.5909923000144772,,,,,,,,,,cihan,001,2023-12-18_13h04.09.969,game,2022.2.5,59.96224776056681,
,,,,,,,,,,,,7,0,7,0,,,,,,,,,,,,,,,,,,,,,,,,,,,,,,,,,,,,,3161.879077099962,3161.879077099962,num_1,3.602119399991352,,,,,,,,,,cihan,001,2023-12-18_13h04.09.969,game,2022.2.5,59.96224776056681,
,,,,,,,,,,,,8,0,8,0,,,,,,,,,,,,,,,,,,,,,,,,,,,,,,,,,,,,,3165.8953534999746,3165.8953534999746,num_1,2.889127800008282,,,,,,,,,,cihan,001,2023-12-18_13h04.09.969,game,2022.2.5,59.96224776056681,
,,,,,,,,,,,,9,0,9,0,,,,,,,,,,,,,,,,,,,,,,,,,,,,,,,,,,,,,3169.2113558999845,3169.2113558999845,num_4,1.629700799996499,,,,,,,,,,cihan,001,2023-12-18_13h04.09.969,game,2022.2.5,59.96224776056681,
,,,,,,,,,,,,10,0,10,0,,,,,,,,,,,,,,,,,,,,,,,,,,,,,,,,,,,,,3171.3118565999903,3171.3118565999903,num_6,3.2816944000078365,,,,,,,,,,cihan,001,2023-12-18_13h04.09.969,game,2022.2.5,59.96224776056681,
,,,,,,,,,,,,11,0,11,0,,,,,,,,,,,,,,,,,,,,,,,,,,,,,,,,,,,,,3175.046250799962,3175.046250799962,num_5,7.450951000035275,,,,,,,,,,cihan,001,2023-12-18_13h04.09.969,game,2022.2.5,59.96224776056681,
,,,,,,,,,,,,12,0,12,0,,,,,,,,,,,,,,,,,,,,,,,,,,,,,,,,,,,,,3182.9282730999985,3182.9282730999985,num_5,4.176726799982134,,,,,,,,,,cihan,001,2023-12-18_13h04.09.969,game,2022.2.5,59.96224776056681,
,,,,,,,,,,,,13,0,13,0,,,,,,,,,,,,,,,,,,,,,,,,,,,,,,,,,,,,,3187.5435693999752,3187.5435693999752,num_6,2.073599199997261,,,,,,,,,,cihan,001,2023-12-18_13h04.09.969,game,2022.2.5,59.96224776056681,
,,,,,,,,,,,,14,0,14,0,,,,,,,,,,,,,,,,,,,,,,,,,,,,,,,,,,,,,3190.1109617999755,3190.1109617999755,num_6,2.594230199989397,,,,,,,,,,cihan,001,2023-12-18_13h04.09.969,game,2022.2.5,59.96224776056681,
,,,,,,,,,,,,15,0,15,0,,,,,,,,,,,,,,,,,,,,,,,,,,,,,,,,,,,,,3193.1610051000025,3193.1610051000025,num_5,3.800494399969466,,,,,,,,,,cihan,001,2023-12-18_13h04.09.969,game,2022.2.5,59.96224776056681,
,,,,,,,,,,,,16,0,16,0,,,,,,,,,,,,,,,,,,,,,,,,,,,,,,,,,,,,,3197.3770139999688,3197.3770139999688,num_4,1.8797663999721408,,,,,,,,,,cihan,001,2023-12-18_13h04.09.969,game,2022.2.5,59.96224776056681,
,,,,,,,,,,,,17,0,17,0,,,,,,,,,,,,,,,,,,,,,,,,,,,,,,,,,,,,,3199.727116199967,3199.727116199967,num_0,2.603072499972768,,,,,,,,,,cihan,001,2023-12-18_13h04.09.969,game,2022.2.5,59.96224776056681,
,,,,,,,,,,,,18,0,18,0,,,,,,,,,,,,,,,,,,,,,,,,,,,,,,,,,,,,,3202.7793725999654,3202.7793725999654,num_4,2.462027300032787,,,,,,,,,,cihan,001,2023-12-18_13h04.09.969,game,2022.2.5,59.96224776056681,
,,,,,,,,,,,,19,0,19,0,,,,,,,,,,,,,,,,,,,,,,,,,,,,,,,,,,,,,3205.6931859999895,3205.6931859999895,num_4,2.5641166999703273,,,,,,,,,,cihan,001,2023-12-18_13h04.09.969,game,2022.2.5,59.96224776056681,
,,,,,,,,,,,,20,0,20,0,,,,,,,,,,,,,,,,,,,,,,,,,,,,,,,,,,,,,3208.7765186000033,3208.7765186000033,num_5,4.64043720002519,,,,,,,,,,cihan,001,2023-12-18_13h04.09.969,game,2022.2.5,59.96224776056681,
,,,,,,,,,,,,21,0,21,0,,,,,,,,,,,,,,,,,,,,,,,,,,,,,,,,,,,,,3213.8432648999733,3213.8432648999733,num_5,1.598732199985534,,,,,,,,,,cihan,001,2023-12-18_13h04.09.969,game,2022.2.5,59.96224776056681,
,,,,,,,,,,,,22,0,22,0,,,,,,,,,,,,,,,,,,,,,,,,,,,,,,,,,,,,,3215.9265652999748,3215.9265652999748,num_0,1.9548678999999538,,,,,,,,,,cihan,001,2023-12-18_13h04.09.969,game,2022.2.5,59.96224776056681,
,,,,,,,,,,,,23,0,23,0,,,,,,,,,,,,,,,,,,,,,,,,,,,,,,,,,,,,,3218.3259942999575,3218.3259942999575,num_1,3.2273710000445135,,,,,,,,,,cihan,001,2023-12-18_13h04.09.969,game,2022.2.5,59.96224776056681,
,,,,,,,,,,,,24,0,24,0,,,,,,,,,,,,,,,,,,,,,,,,,,,,,,,,,,,,,3222.0756771999877,3222.0756771999877,num_6,8.5972872999846,,,,,,,,,,cihan,001,2023-12-18_13h04.09.969,game,2022.2.5,59.96224776056681,
,,,,,,,,,,,,25,0,25,0,,,,,,,,,,,,,,,,,,,,,,,,,,,,,,,,,,,,,3231.192204199964,3231.192204199964,num_6,5.513038600038271,,,,,,,,,,cihan,001,2023-12-18_13h04.09.969,game,2022.2.5,59.96224776056681,
,,,,,,,,,,,,26,0,26,0,,,,,,,,,,,,,,,,,,,,,,,,,,,,,,,,,,,,,3237.141768099973,3237.141768099973,num_4,1.9406678999657743,,,,,,,,,,cihan,001,2023-12-18_13h04.09.969,game,2022.2.5,59.96224776056681,
,,,,,,,,,,,,27,0,27,0,,,,,,,,,,,,,,,,,,,,,,,,,,,,,,,,,,,,,3239.507389199978,3239.507389199978,num_5,4.038554500031751,,,,,,,,,,cihan,001,2023-12-18_13h04.09.969,game,2022.2.5,59.96224776056681,
,,,,,,,,,,,,28,0,28,0,,,,,,,,,,,,,,,,,,,,,,,,,,,,,,,,,,,,,3244.008143699961,3244.008143699961,num_4,3.1379529000259936,,,,,,,,,,cihan,001,2023-12-18_13h04.09.969,game,2022.2.5,59.96224776056681,
,,,,,,,,,,,,29,0,29,0,,,,,,,,,,,,,,,,,,,,,,,,,,,,,,,,,,,,,3247.6249603999895,3247.6249603999895,num_8,2.145260299963411,,,,,,,,,,cihan,001,2023-12-18_13h04.09.969,game,2022.2.5,59.96224776056681,
,,,,,,,,,,,,30,0,30,0,,,,,,,,,,,,,,,,,,,,,,,,,,,,,,,,,,,,,3250.224633399979,3250.224633399979,num_1,4.504677499993704,,,,,,,,,,cihan,001,2023-12-18_13h04.09.969,game,2022.2.5,59.96224776056681,
,,,,,,,,,,,,31,0,31,0,,,,,,,,,,,,,,,,,,,,,,,,,,,,,,,,,,,,,3255.207324399962,3255.207324399962,num_4,4.057842899987008,,,,,,,,,,cihan,001,2023-12-18_13h04.09.969,game,2022.2.5,59.96224776056681,
,,,,,,,,,,,,32,0,32,0,,,,,,,,,,,,,,,,,,,,,,,,,,,,,,,,,,,,,3259.7237462999765,3259.7237462999765,num_2,4.1495687999995425,,,,,,,,,,cihan,001,2023-12-18_13h04.09.969,game,2022.2.5,59.96224776056681,
,,,,,,,,,,,,33,0,33,0,,,,,,,,,,,,,,,,,,,,,,,,,,,,,,,,,,,,,3264.307010299992,3264.307010299992,num_6,17.686467199993785,,,,,,,,,,cihan,001,2023-12-18_13h04.09.969,game,2022.2.5,59.96224776056681,
,,,,,,,,,,,,34,0,34,0,,,,,,,,,,,,,,,,,,,,,,,,,,,,,,,,,,,,,3282.4056756999926,3282.4056756999926,None,,,,,,,,,,,cihan,001,2023-12-18_13h04.09.969,game,2022.2.5,59.96224776056681,
,,,,,,,,,,,,,,,,,,,,,,,,,,,,,,,,,,,,,,,,,,,,,,,,,,,,,,,,3284.6077740999754,3284.6077740999754,space,2.081990200036671,,,,,,cihan,001,2023-12-18_13h04.09.969,game,2022.2.5,59.96224776056681,
,,,,,,,,,,,,,,,,,,,,,,,,,,,,,,,,,,,,,,,,,,,,,,,,,,,,,,,,,,,,4508.431982799957,4508.431982799957,space,5.70401500002481,,cihan,001,2023-12-18_13h04.09.969,game,2022.2.5,59.96224776056681,
,,,,,,,,,,,,,,,,,,,,,,,,,,,,,,4514.158665499999,4514.158665499999,space,5.41191839997191,,,,,,,,,,,,,,,,,,,,,,,,,,,,,,,,cihan,001,2023-12-18_13h04.09.969,game,2022.2.5,59.96224776056681,
,,,,,,,,,,,,,,,,0,0,0,0,,,,,,,,,,,,,,,4,4519.591810199956,4519.591810199956,4522.590817799966,4523.5908856999595,None,4523.5908856999595,4523.5908856999595,1,714.5992000005208,space,0.7145992000005208,4524.338059099973,4524.840611099964,,,,,,,,,,,,,,,,,,cihan,001,2023-12-18_13h04.09.969,game,2022.2.5,59.96224776056681,
,,,,,,,,,,,,,,,,1,0,1,0,,,,,,,,,,,,,,,1,4524.840611099964,4524.840611099964,4524.840611099964,4525.840658199973,None,4525.840658199973,4525.840658199973,1,841.0185999819078,space,0.8410185999819078,4526.721373700013,4527.224091399985,,,,,,,,,,,,,,,,,,cihan,001,2023-12-18_13h04.09.969,game,2022.2.5,59.96224776056681,
,,,,,,,,,,,,,,,,2,0,2,0,,,,,,,,,,,,,,,1,4527.224091399985,4527.224091399985,4527.224091399985,4528.224283399992,None,4528.224283399992,4528.224283399992,1,689.2954999930225,space,0.6892954999930225,4528.954359099967,4529.45742240001,,,,,,,,,,,,,,,,,,cihan,001,2023-12-18_13h04.09.969,game,2022.2.5,59.96224776056681,
,,,,,,,,,,,,,,,,3,0,3,0,,,,,,,,,,,,,,,1,4529.45742240001,4529.45742240001,4529.45742240001,4530.457224299957,None,4530.457224299957,4530.457224299957,1,800.1907999860123,space,0.8001907999860123,4531.288071299961,4531.790025499999,,,,,,,,,,,,,,,,,,cihan,001,2023-12-18_13h04.09.969,game,2022.2.5,59.96224776056681,
,,,,,,,,,,,,,,,,4,0,4,0,,,,,,,,,,,,,,,1,4531.790025499999,4531.790025499999,4531.790025499999,4532.791587399959,None,4532.791587399959,4532.791587399959,1,658.7154999724589,space,0.6587154999724589,4533.487879299966,4533.990880099998,,,,,,,,,,,,,,,,,,cihan,001,2023-12-18_13h04.09.969,game,2022.2.5,59.96224776056681,
,,,,,,,,,,,,,,,,5,0,5,0,,,,,,,,,,,,,,,3,4533.990880099998,4533.990880099998,4535.990541699983,4536.990518199978,None,4536.990518199978,4536.990518199978,1,579.7949000261724,space,0.5797949000261724,4537.603995699959,4538.107027699996,,,,,,,,,,,,,,,,,,cihan,001,2023-12-18_13h04.09.969,game,2022.2.5,59.96224776056681,
,,,,,,,,,,,,,,,,6,0,6,0,,,,,,,,,,,,,,,4,4538.107027699996,4538.107027699996,4541.106470700004,4542.106688699976,None,4542.106688699976,4542.106688699976,1,622.4559000111185,space,0.6224559000111185,4542.771159199998,4543.2736133,,,,,,,,,,,,,,,,,,cihan,001,2023-12-18_13h04.09.969,game,2022.2.5,59.96224776056681,
,,,,,,,,,,,,,,,,7,0,7,0,,,,,,,,,,,,,,,1,4543.2736133,4543.2736133,4543.2736133,4544.273034000013,None,4544.273034000013,4544.273034000013,1,808.0900000059046,space,0.8080900000059046,4545.120912799961,4545.62345319998,,,,,,,,,,,,,,,,,,cihan,001,2023-12-18_13h04.09.969,game,2022.2.5,59.96224776056681,
,,,,,,,,,,,,,,,,8,0,8,0,,,,,,,,,,,,,,,1,4545.62345319998,4545.62345319998,4545.62345319998,4546.62300089997,None,4546.62300089997,4546.62300089997,1,994.2311000195332,space,0.9942311000195332,4547.653317599965,4548.15599249996,,,,,,,,,,,,,,,,,,cihan,001,2023-12-18_13h04.09.969,game,2022.2.5,59.96224776056681,
,,,,,,,,,,,,,,,,9,0,9,0,,,,,,,,,,,,,,,1,4548.15599249996,4548.15599249996,4548.15599249996,4549.156201199978,None,4549.156201199978,4549.156201199978,1,860.9778999816626,space,0.8609778999816626,4550.054277999967,4550.564231599972,,,,,,,,,,,,,,,,,,cihan,001,2023-12-18_13h04.09.969,game,2022.2.5,59.96224776056681,
,,,,,,,,,,,,,,,,10,0,10,0,,,,,,,,,,,,,,,3,4550.564231599972,4550.564231599972,4552.573605699989,4553.587545699964,None,4553.587545699964,4553.587545699964,1,685.8265000046231,space,0.6858265000046231,4554.303028599999,4554.806500300008,,,,,,,,,,,,,,,,,,cihan,001,2023-12-18_13h04.09.969,game,2022.2.5,59.96224776056681,
,,,,,,,,,,,,,,,,11,0,11,0,,,,,,,,,,,,,,,1,4554.806500300008,4554.806500300008,4554.806500300008,4555.805895800004,None,4555.805895800004,4555.805895800004,1,803.2940000412054,space,0.8032940000412054,4556.636557799997,4557.139123699977,,,,,,,,,,,,,,,,,,cihan,001,2023-12-18_13h04.09.969,game,2022.2.5,59.96224776056681,
,,,,,,,,,,,,,,,,12,0,12,0,,,,,,,,,,,,,,,1,4557.139123699977,4557.139123699977,4557.139123699977,4558.141375700012,None,4558.141375700012,4558.141375700012,1,756.7108999937773,space,0.7567108999937773,4558.92371100001,4559.435979200003,,,,,,,,,,,,,,,,,,cihan,001,2023-12-18_13h04.09.969,game,2022.2.5,59.96224776056681,
,,,,,,,,,,,,,,,,13,0,13,0,,,,,,,,,,,,,,,4,4559.435979200003,4559.435979200003,4562.438908399956,4563.4388854000135,None,4563.4388854000135,4563.4388854000135,1,867.0609000255354,space,0.8670609000255354,4564.335903899977,4564.843241899973,,,,,,,,,,,,,,,,,,cihan,001,2023-12-18_13h04.09.969,game,2022.2.5,59.96224776056681,
,,,,,,,,,,,,,,,,14,0,14,0,,,,,,,,,,,,,,,4,4564.843241899973,4564.843241899973,4567.855652300001,4568.85574259999,None,4568.85574259999,4568.85574259999,1,865.8113999990746,space,0.8658113999990746,4569.739751199959,4570.255282099999,,,,,,,,,,,,,,,,,,cihan,001,2023-12-18_13h04.09.969,game,2022.2.5,59.96224776056681,
,,,,,,,,,,,,,,,,15,0,15,0,,,,,,,,,,,,,,,3,4570.255282099999,4570.255282099999,4572.254943799984,4573.2551153000095,None,4573.2551153000095,4573.2551153000095,1,827.8157999739051,space,0.8278157999739051,4574.119101899967,4574.622014499968,,,,,,,,,,,,,,,,,,cihan,001,2023-12-18_13h04.09.969,game,2022.2.5,59.96224776056681,
,,,,,,,,,,,,,,,,16,0,16,0,,,,,,,,,,,,,,,2,4574.622014499968,4574.622014499968,4575.621387599967,4576.621499300003,None,4576.621499300003,4576.621499300003,1,940.7701999880373,space,0.9407701999880373,4577.618459299963,4578.121278700011,,,,,,,,,,,,,,,,,,cihan,001,2023-12-18_13h04.09.969,game,2022.2.5,59.96224776056681,
,,,,,,,,,,,,,,,,17,0,17,0,,,,,,,,,,,,,,,2,4578.121278700011,4578.121278700011,4579.12127090001,4580.122004500008,None,4580.122004500008,4580.122004500008,1,681.0663000214845,space,0.6810663000214845,4580.834953999962,4581.337979600008,,,,,,,,,,,,,,,,,,cihan,001,2023-12-18_13h04.09.969,game,2022.2.5,59.96224776056681,
,,,,,,,,,,,,,,,,18,0,18,0,,,,,,,,,,,,,,,2,4581.337979600008,4581.337979600008,4582.337563899986,4583.337513100007,None,4583.337513100007,4583.337513100007,1,896.0622000158764,space,0.8960622000158764,4584.268225600012,4584.770660399983,,,,,,,,,,,,,,,,,,cihan,001,2023-12-18_13h04.09.969,game,2022.2.5,59.96224776056681,
,,,,,,,,,,,,,,,,19,0,19,0,,,,,,,,,,,,,,,3,4584.770660399983,4584.770660399983,4586.77121039998,4587.7713938999805,None,4587.7713938999805,4587.7713938999805,1,710.3216999676079,space,0.7103216999676079,4588.521611900011,4589.034768499958,,,,,,,,,,,,,,,,,,cihan,001,2023-12-18_13h04.09.969,game,2022.2.5,59.96224776056681,
,,,,,,,,,,,,,,,,20,0,20,0,,,,,,,,,,,,,,,3,4589.034768499958,4589.034768499958,4591.037899499992,4592.037485699984,None,4592.037485699984,4592.037485699984,1,748.0902000097558,space,0.7480902000097558,4592.818081300007,4593.3207268000115,,,,,,,,,,,,,,,,,,cihan,001,2023-12-18_13h04.09.969,game,2022.2.5,59.96224776056681,
,,,,,,,,,,,,,,,,21,0,21,0,,,,,,,,,,,,,,,4,4593.3207268000115,4593.3207268000115,4596.319944599993,4597.321386099968,None,4597.321386099968,4597.321386099968,1,848.9748999709263,space,0.8489748999709263,4598.200787699956,4598.703386899957,,,,,,,,,,,,,,,,,,cihan,001,2023-12-18_13h04.09.969,game,2022.2.5,59.96224776056681,
,,,,,,,,,,,,,,,,22,0,22,0,,,,,,,,,,,,,,,4,4598.703386899957,4598.703386899957,4601.703656699974,4602.703794299974,None,4602.703794299974,4602.703794299974,1,930.5654000490904,space,0.9305654000490904,4603.667166800005,4604.170058799966,,,,,,,,,,,,,,,,,,cihan,001,2023-12-18_13h04.09.969,game,2022.2.5,59.96224776056681,
,,,,,,,,,,,,,,,,23,0,23,0,,,,,,,,,,,,,,,2,4604.170058799966,4604.170058799966,4605.169773000001,4606.16978409997,None,4606.16978409997,4606.16978409997,1,760.4184999945574,space,0.7604184999945574,4606.967136899999,4607.470298999979,,,,,,,,,,,,,,,,,,cihan,001,2023-12-18_13h04.09.969,game,2022.2.5,59.96224776056681,
,,,,,,,,,,,,,,,,24,0,24,0,,,,,,,,,,,,,,,2,4607.470298999979,4607.470298999979,4608.473482200003,4609.470239099988,None,4609.470239099988,4609.470239099988,1,819.5793999475427,space,0.8195793999475427,4610.31706229999,4610.822586799972,,,,,,,,,,,,,,,,,,cihan,001,2023-12-18_13h04.09.969,game,2022.2.5,59.96224776056681,
,,,,,,,,,,,,,,,,25,0,25,0,,,,,,,,,,,,,,,1,4610.822586799972,4610.822586799972,4610.822586799972,4611.8372914000065,None,4611.8372914000065,4611.8372914000065,1,1029.2120999656618,space,1.0292120999656618,4612.886778999993,4613.3889962999965,,,,,,,,,,,,,,,,,,cihan,001,2023-12-18_13h04.09.969,game,2022.2.5,59.96224776056681,
,,,,,,,,,,,,,,,,26,0,26,0,,,,,,,,,,,,,,,3,4613.3889962999965,4613.3889962999965,4615.402914699982,4616.402970700001,None,4616.402970700001,4616.402970700001,1,647.4813999957405,space,0.6474813999957405,4617.0831031000125,4617.585886499961,,,,,,,,,,,,,,,,,,cihan,001,2023-12-18_13h04.09.969,game,2022.2.5,59.96224776056681,
,,,,,,,,,,,,,,,,27,0,27,0,,,,,,,,,,,,,,,3,4617.585886499961,4617.585886499961,4619.586046799959,4620.600050100009,None,4620.600050100009,4620.600050100009,1,729.8416999983601,space,0.7298416999983601,4621.382471199962,4621.885467699962,,,,,,,,,,,,,,,,,,cihan,001,2023-12-18_13h04.09.969,game,2022.2.5,59.96224776056681,
,,,,,,,,,,,,,,,,28,0,28,0,,,,,,,,,,,,,,,3,4621.885467699962,4621.885467699962,4623.8862548999605,4624.885110099975,None,4624.885110099975,4624.885110099975,1,581.6225999733433,space,0.5816225999733433,4625.501224300009,4626.002871899982,,,,,,,,,,,,,,,,,,cihan,001,2023-12-18_13h04.09.969,game,2022.2.5,59.96224776056681,
,,,,,,,,,,,,,,,,29,0,29,0,,,,,,,,,,,,,,,3,4626.002871899982,4626.002871899982,4628.002606800001,4629.002482599986,None,4629.002482599986,4629.002482599986,1,760.088800045196,space,0.760088800045196,4629.79936939996,4630.317251099972,,,,,,,,,,,,,,,,,,cihan,001,2023-12-18_13h04.09.969,game,2022.2.5,59.96224776056681,
,,,,,,,,,,,,,,,,30,0,30,0,,,,,,,,,,,,,,,3,4630.317251099972,4630.317251099972,4632.318686000013,4633.318710799969,None,4633.318710799969,4633.318710799969,1,1003.1155000324361,space,1.003115500032436,4634.365785699978,4634.868732200004,,,,,,,,,,,,,,,,,,cihan,001,2023-12-18_13h04.09.969,game,2022.2.5,59.96224776056681,
,,,,,,,,,,,,,,,,31,0,31,0,,,,,,,,,,,,,,,2,4634.868732200004,4634.868732200004,4635.870681500004,4636.868720599974,None,4636.868720599974,4636.868720599974,1,701.5249999822117,space,0.7015249999822117,4637.61656569998,4638.118335900013,,,,,,,,,,,,,,,,,,cihan,001,2023-12-18_13h04.09.969,game,2022.2.5,59.96224776056681,
,,,,,,,,,,,,,,,,32,0,32,0,,,,,,,,,,,,,,,4,4638.118335900013,4638.118335900013,4641.1200006,4642.118728499976,None,4642.118728499976,4642.118728499976,1,813.0189999938011,space,0.8130189999938011,4642.965587899962,4643.467952499981,,,,,,,,,,,,,,,,,,cihan,001,2023-12-18_13h04.09.969,game,2022.2.5,59.96224776056681,
,,,,,,,,,,,,,,,,33,0,33,0,,,,,,,,,,,,,,,3,4643.467952499981,4643.467952499981,4645.467897099967,4646.4678059999715,None,4646.4678059999715,4646.4678059999715,1,774.5329000172205,space,0.7745329000172205,4647.281634299958,4647.785285599995,,,,,,,,,,,,,,,,,,cihan,001,2023-12-18_13h04.09.969,game,2022.2.5,59.96224776056681,
,,,,,,,,,,,,,,,,34,0,34,0,,,,,,,,,,,,,,,4,4647.785285599995,4647.785285599995,4650.8032669000095,4651.785197499965,None,4651.785197499965,4651.785197499965,1,921.0313999792561,space,0.9210313999792561,4652.731608900009,4653.234270099958,,,,,,,,,,,,,,,,,,cihan,001,2023-12-18_13h04.09.969,game,2022.2.5,59.96224776056681,
,,,,,,,,,,,,,,,,35,0,35,0,,,,,,,,,,,,,,,1,4653.234270099958,4653.234270099958,4653.234270099958,4654.234573099995,None,4654.234573099995,4654.234573099995,1,671.2927999906242,space,0.6712927999906242,4654.931960099959,4655.434140799975,,,,,,,,,,,,,,,,,,cihan,001,2023-12-18_13h04.09.969,game,2022.2.5,59.96224776056681,
,,,,,,,,,,,,,,,,36,0,36,0,,,,,,,,,,,,,,,4,4655.434140799975,4655.434140799975,4658.434795100009,4659.434181499993,None,4659.434181499993,4659.434181499993,1,648.2125999755226,space,0.6482125999755226,4660.114978199999,4660.6172452999745,,,,,,,,,,,,,,,,,,cihan,001,2023-12-18_13h04.09.969,game,2022.2.5,59.96224776056681,
,,,,,,,,,,,,,,,,37,0,37,0,,,,,,,,,,,,,,,3,4660.6172452999745,4660.6172452999745,4662.61776589998,4663.647013299982,None,4663.647013299982,4663.647013299982,1,739.0726000303403,space,0.7390726000303403,4664.414270100009,4664.916950599989,,,,,,,,,,,,,,,,,,cihan,001,2023-12-18_13h04.09.969,game,2022.2.5,59.96224776056681,
,,,,,,,,,,,,,,,,38,0,38,0,,,,,,,,,,,,,,,4,4664.916950599989,4664.916950599989,4667.9165884999675,4668.917013700004,None,4668.917013700004,4668.917013700004,1,765.6342000118457,space,0.7656342000118457,4669.730520599987,4670.234827999957,,,,,,,,,,,,,,,,,,cihan,001,2023-12-18_13h04.09.969,game,2022.2.5,59.96224776056681,
,,,,,,,,,,,,,,,,,,,,,,,,,,,,,,,,,,,,,,,,,,,,,,,,4670.234827999957,4670.234827999957,space,1.9275203000288457,,,,,,,,,,,,,,cihan,001,2023-12-18_13h04.09.969,game,2022.2.5,59.96224776056681,
,,,,,,,,,,,,,,,,,,,,0,0,0,0,,,,,,,,,,,,,,,,,,,,,,,,,,,,,4672.196875799971,4672.196875799971,num_6,4.3174482000176795,,,,,,,,,,cihan,001,2023-12-18_13h04.09.969,game,2022.2.5,59.96224776056681,
,,,,,,,,,,,,,,,,,,,,1,0,1,0,,,,,,,,,,,,,,,,,,,,,,,,,,,,,4676.963856999995,4676.963856999995,num_0,3.222178299969528,,,,,,,,,,cihan,001,2023-12-18_13h04.09.969,game,2022.2.5,59.96224776056681,
,,,,,,,,,,,,,,,,,,,,2,0,2,0,,,,,,,,,,,,,,,,,,,,,,,,,,,,,4680.6631478999625,4680.6631478999625,num_2,9.867634400026873,,,,,,,,,,cihan,001,2023-12-18_13h04.09.969,game,2022.2.5,59.96224776056681,
,,,,,,,,,,,,,,,,,,,,3,0,3,0,,,,,,,,,,,,,,,,,,,,,,,,,,,,,4690.9633822999895,4690.9633822999895,num_1,2.726714799995534,,,,,,,,,,cihan,001,2023-12-18_13h04.09.969,game,2022.2.5,59.96224776056681,
,,,,,,,,,,,,,,,,,,,,4,0,4,0,,,,,,,,,,,,,,,,,,,,,,,,,,,,,4694.112703899969,4694.112703899969,num_6,2.5305333000142127,,,,,,,,,,cihan,001,2023-12-18_13h04.09.969,game,2022.2.5,59.96224776056681,
,,,,,,,,,,,,,,,,,,,,5,0,5,0,,,,,,,,,,,,,,,,,,,,,,,,,,,,,4697.112693600007,4697.112693600007,num_3,3.809537300025113,,,,,,,,,,cihan,001,2023-12-18_13h04.09.969,game,2022.2.5,59.96224776056681,
,,,,,,,,,,,,,,,,,,,,6,0,6,0,,,,,,,,,,,,,,,,,,,,,,,,,,,,,4701.345651299984,4701.345651299984,num_9,4.8566430999781005,,,,,,,,,,cihan,001,2023-12-18_13h04.09.969,game,2022.2.5,59.96224776056681,
,,,,,,,,,,,,,,,,,,,,7,0,7,0,,,,,,,,,,,,,,,,,,,,,,,,,,,,,4706.712049499969,4706.712049499969,num_5,2.2747890999889933,,,,,,,,,,cihan,001,2023-12-18_13h04.09.969,game,2022.2.5,59.96224776056681,
,,,,,,,,,,,,,,,,,,,,8,0,8,0,,,,,,,,,,,,,,,,,,,,,,,,,,,,,4709.462832799996,4709.462832799996,num_5,5.54811980004888,,,,,,,,,,cihan,001,2023-12-18_13h04.09.969,game,2022.2.5,59.96224776056681,
,,,,,,,,,,,,,,,,,,,,9,0,9,0,,,,,,,,,,,,,,,,,,,,,,,,,,,,,4715.4949430999695,4715.4949430999695,num_7,8.243784699996468,,,,,,,,,,cihan,001,2023-12-18_13h04.09.969,game,2022.2.5,59.96224776056681,
,,,,,,,,,,,,,,,,,,,,10,0,10,0,,,,,,,,,,,,,,,,,,,,,,,,,,,,,4724.327926800004,4724.327926800004,num_1,3.594490199990105,,,,,,,,,,cihan,001,2023-12-18_13h04.09.969,game,2022.2.5,59.96224776056681,
,,,,,,,,,,,,,,,,,,,,11,0,11,0,,,,,,,,,,,,,,,,,,,,,,,,,,,,,4728.444845899998,4728.444845899998,num_8,2.2387875999556854,,,,,,,,,,cihan,001,2023-12-18_13h04.09.969,game,2022.2.5,59.96224776056681,
,,,,,,,,,,,,,,,,,,,,12,0,12,0,,,,,,,,,,,,,,,,,,,,,,,,,,,,,4731.177590099978,4731.177590099978,num_3,6.07332599995425,,,,,,,,,,cihan,001,2023-12-18_13h04.09.969,game,2022.2.5,59.96224776056681,
,,,,,,,,,,,,,,,,,,,,13,0,13,0,,,,,,,,,,,,,,,,,,,,,,,,,,,,,4737.760531499982,4737.760531499982,num_0,2.825814999989234,,,,,,,,,,cihan,001,2023-12-18_13h04.09.969,game,2022.2.5,59.96224776056681,
,,,,,,,,,,,,,,,,,,,,14,0,14,0,,,,,,,,,,,,,,,,,,,,,,,,,,,,,4740.960358100012,4740.960358100012,num_6,7.122661100002006,,,,,,,,,,cihan,001,2023-12-18_13h04.09.969,game,2022.2.5,59.96224776056681,
,,,,,,,,,,,,,,,,,,,,15,0,15,0,,,,,,,,,,,,,,,,,,,,,,,,,,,,,4748.509957699978,4748.509957699978,num_7,2.8053445999976248,,,,,,,,,,cihan,001,2023-12-18_13h04.09.969,game,2022.2.5,59.96224776056681,
,,,,,,,,,,,,,,,,,,,,16,0,16,0,,,,,,,,,,,,,,,,,,,,,,,,,,,,,4751.876600199961,4751.876600199961,num_4,2.1584990000119433,,,,,,,,,,cihan,001,2023-12-18_13h04.09.969,game,2022.2.5,59.96224776056681,
,,,,,,,,,,,,,,,,,,,,17,0,17,0,,,,,,,,,,,,,,,,,,,,,,,,,,,,,4754.493085099966,4754.493085099966,num_8,14.77372270001797,,,,,,,,,,cihan,001,2023-12-18_13h04.09.969,game,2022.2.5,59.96224776056681,
,,,,,,,,,,,,,,,,,,,,18,0,18,0,,,,,,,,,,,,,,,,,,,,,,,,,,,,,4769.758753900009,4769.758753900009,num_1,2.82785000000149,,,,,,,,,,cihan,001,2023-12-18_13h04.09.969,game,2022.2.5,59.96224776056681,
,,,,,,,,,,,,,,,,,,,,19,0,19,0,,,,,,,,,,,,,,,,,,,,,,,,,,,,,4772.958392100001,4772.958392100001,num_1,8.084968200011645,,,,,,,,,,cihan,001,2023-12-18_13h04.09.969,game,2022.2.5,59.96224776056681,
,,,,,,,,,,,,,,,,,,,,20,0,20,0,,,,,,,,,,,,,,,,,,,,,,,,,,,,,4781.474857199995,4781.474857199995,num_6,2.064155899977777,,,,,,,,,,cihan,001,2023-12-18_13h04.09.969,game,2022.2.5,59.96224776056681,
,,,,,,,,,,,,,,,,,,,,21,0,21,0,,,,,,,,,,,,,,,,,,,,,,,,,,,,,4784.057856999978,4784.057856999978,num_5,21.481754400010686,,,,,,,,,,cihan,001,2023-12-18_13h04.09.969,game,2022.2.5,59.96224776056681,
,,,,,,,,,,,,,,,,,,,,22,0,22,0,,,,,,,,,,,,,,,,,,,,,,,,,,,,,4805.973158799985,4805.973158799985,num_8,3.709767299995292,,,,,,,,,,cihan,001,2023-12-18_13h04.09.969,game,2022.2.5,59.96224776056681,
,,,,,,,,,,,,,,,,,,,,23,0,23,0,,,,,,,,,,,,,,,,,,,,,,,,,,,,,4810.173218799988,4810.173218799988,num_7,2.1102962999721058,,,,,,,,,,cihan,001,2023-12-18_13h04.09.969,game,2022.2.5,59.96224776056681,
,,,,,,,,,,,,,,,,,,,,24,0,24,0,,,,,,,,,,,,,,,,,,,,,,,,,,,,,4812.839608699956,4812.839608699956,num_2,1.9238544999971054,,,,,,,,,,cihan,001,2023-12-18_13h04.09.969,game,2022.2.5,59.96224776056681,
,,,,,,,,,,,,,,,,,,,,25,0,25,0,,,,,,,,,,,,,,,,,,,,,,,,,,,,,4815.256313899998,4815.256313899998,num_8,3.6990363000077195,,,,,,,,,,cihan,001,2023-12-18_13h04.09.969,game,2022.2.5,59.96224776056681,
,,,,,,,,,,,,,,,,,,,,26,0,26,0,,,,,,,,,,,,,,,,,,,,,,,,,,,,,4819.506153900002,4819.506153900002,None,,,,,,,,,,,cihan,001,2023-12-18_13h04.09.969,game,2022.2.5,59.96224776056681,
,,,,,,,,,,,,,,,,,,,,,,,,,,,,,,,,,,,,,,,,,,,,,,,,,,,,,,,,,,,,,,,,4822.205478799995,,,,,,,
