trials.thisRepN,trials.thisTrialN,trials.thisN,trials.thisIndex,trials_3.thisRepN,trials_3.thisTrialN,trials_3.thisN,trials_3.thisIndex,trials_6.thisRepN,trials_6.thisTrialN,trials_6.thisN,trials_6.thisIndex,trials_5.thisRepN,trials_5.thisTrialN,trials_5.thisN,trials_5.thisIndex,text_2.started,key_resp.started,key_resp.keys,key_resp.rt,text_4.started,text_4.stopped,InstructionsText.started,InstrucKey.started,InstrucKey.keys,InstrucKey.rt,ISI,ISI_text.started,dontrespond.started,dontrespond.stopped,ISI_text.stopped,dontrespond.keys,Targetstim.started,Response.started,Accuracy,RTms,Response.keys,Response.rt,Feedback_text.started,Feedback_text.stopped,text_6.started,key_resp_2.started,key_resp_2.keys,key_resp_2.rt,key_resp_4.started,text_7.started,key_resp_4.keys,key_resp_4.rt,text_14.started,key_resp_7.started,key_resp_7.keys,key_resp_7.rt,text_13.started,key_resp_6.started,key_resp_6.keys,key_resp_6.rt,participant,session,date,expName,psychopyVersion,frameRate,
,,,,,,,,,,,,,,,,29.63301049999427,29.63301049999427,space,1071.303906599991,,,,,,,,,,,,,,,,,,,,,,,,,,,,,,,,,,,,,leonard,001,2023-12-20_14h58.01.875,game,2022.2.5,60.23943972490437,
,,,,,,,,,,,,,,,,,,,,1100.970112299954,1130.9853784999577,1130.9853784999577,1130.9853784999577,space,24.112326100002974,,,,,,,,,,,,,,,,,,,,,,,,,,,,,,,leonard,001,2023-12-20_14h58.01.875,game,2022.2.5,60.23943972490437,
0,0,0,0,,,,,,,,,,,,,,,,,,,,,,,2,1155.1162358999718,1155.1162358999718,1156.1185230999836,1157.1162588999723,None,1157.1162588999723,1157.1162588999723,1,380.5818000109866,space,0.3805818000109866,1157.5322391999653,1158.048784499988,,,,,,,,,,,,,,,,,leonard,001,2023-12-20_14h58.01.875,game,2022.2.5,60.23943972490437,
1,0,1,0,,,,,,,,,,,,,,,,,,,,,,,1,1158.048784499988,1158.048784499988,1158.048784499988,,None,,,0,nan,None,,1163.0339561,1163.5494253999786,,,,,,,,,,,,,,,,,leonard,001,2023-12-20_14h58.01.875,game,2022.2.5,60.23943972490437,
2,0,2,0,,,,,,,,,,,,,,,,,,,,,,,4,1163.5494253999786,1163.5494253999786,,,None,,,0,nan,None,,1168.5491622999543,1169.0491555999615,,,,,,,,,,,,,,,,,leonard,001,2023-12-20_14h58.01.875,game,2022.2.5,60.23943972490437,
3,0,3,0,,,,,,,,,,,,,,,,,,,,,,,4,1169.0491555999615,1169.0491555999615,1172.0491633999627,1173.048597899964,None,1173.048597899964,1173.048597899964,1,497.11090000346303,space,0.49711090000346303,1173.5659795999527,1174.0680703999824,,,,,,,,,,,,,,,,,leonard,001,2023-12-20_14h58.01.875,game,2022.2.5,60.23943972490437,
4,0,4,0,,,,,,,,,,,,,,,,,,,,,,,2,1174.0680703999824,1174.0680703999824,1175.0688858999638,1176.0821185999666,None,1176.0821185999666,1176.0821185999666,1,494.63440000545233,space,0.49463440000545233,1176.614768999978,1177.1175879999646,,,,,,,,,,,,,,,,,leonard,001,2023-12-20_14h58.01.875,game,2022.2.5,60.23943972490437,
5,0,5,0,,,,,,,,,,,,,,,,,,,,,,,3,1177.1175879999646,1177.1175879999646,1179.132422900002,1180.132489199983,None,1180.132489199983,1180.132489199983,1,508.4369999822229,space,0.5084369999822229,1180.6977130000014,1181.1983597999788,,,,,,,,,,,,,,,,,leonard,001,2023-12-20_14h58.01.875,game,2022.2.5,60.23943972490437,
6,0,6,0,,,,,,,,,,,,,,,,,,,,,,,1,1181.1983597999788,1181.1983597999788,1181.1983597999788,1182.1985128999804,None,1182.1985128999804,1182.1985128999804,1,466.38629998778924,space,0.46638629998778924,1182.698028099956,1183.2163421000005,,,,,,,,,,,,,,,,,leonard,001,2023-12-20_14h58.01.875,game,2022.2.5,60.23943972490437,
7,0,7,0,,,,,,,,,,,,,,,,,,,,,,,4,1183.2163421000005,1183.2163421000005,1186.2316067999927,1187.231731399952,None,1187.231731399952,1187.231731399952,1,433.11500002164394,space,0.43311500002164394,1187.6817086999654,1188.1847285999684,,,,,,,,,,,,,,,,,leonard,001,2023-12-20_14h58.01.875,game,2022.2.5,60.23943972490437,
8,0,8,0,,,,,,,,,,,,,,,,,,,,,,,4,1188.1847285999684,1188.1847285999684,1191.1982460999861,1192.1989263999858,None,1192.1989263999858,1192.1989263999858,1,394.1107999999076,space,0.3941107999999076,1192.6305812000064,1193.1311008000048,,,,,,,,,,,,,,,,,leonard,001,2023-12-20_14h58.01.875,game,2022.2.5,60.23943972490437,
9,0,9,0,,,,,,,,,,,,,,,,,,,,,,,3,1193.1311008000048,1193.1311008000048,1195.1309362999746,1196.1311910999939,None,1196.1311910999939,1196.1311910999939,1,414.091799990274,space,0.414091799990274,1196.5801472999738,1197.0821107999654,,,,,,,,,,,,,,,,,leonard,001,2023-12-20_14h58.01.875,game,2022.2.5,60.23943972490437,
10,0,10,0,,,,,,,,,,,,,,,,,,,,,,,2,1197.0821107999654,1197.0821107999654,1198.0819515999756,1199.098267399997,None,1199.098267399997,1199.098267399997,1,391.16489997832105,space,0.39116489997832105,1199.5302947000018,1200.032227699994,,,,,,,,,,,,,,,,,leonard,001,2023-12-20_14h58.01.875,game,2022.2.5,60.23943972490437,
11,0,11,0,,,,,,,,,,,,,,,,,,,,,,,2,1200.032227699994,1200.032227699994,1201.0311521999538,1202.030494400009,None,1202.030494400009,1202.030494400009,1,355.29430001042783,space,0.35529430001042783,1202.413193299959,1202.915614700003,,,,,,,,,,,,,,,,,leonard,001,2023-12-20_14h58.01.875,game,2022.2.5,60.23943972490437,
12,0,12,0,,,,,,,,,,,,,,,,,,,,,,,1,1202.915614700003,1202.915614700003,1202.915614700003,1203.914033100009,None,1203.914033100009,1203.914033100009,1,367.5089999451302,space,0.3675089999451302,1204.312116999994,1204.8159938000026,,,,,,,,,,,,,,,,,leonard,001,2023-12-20_14h58.01.875,game,2022.2.5,60.23943972490437,
13,0,13,0,,,,,,,,,,,,,,,,,,,,,,,3,1204.8159938000026,1204.8159938000026,1206.8312294000061,1207.8312937999726,None,1207.8312937999726,1207.8312937999726,1,369.4536000257358,space,0.3694536000257358,1208.2283385999617,1208.7324880000087,,,,,,,,,,,,,,,,,leonard,001,2023-12-20_14h58.01.875,game,2022.2.5,60.23943972490437,
14,0,14,0,,,,,,,,,,,,,,,,,,,,,,,3,1208.7324880000087,1208.7324880000087,1210.7475316000055,1211.7480847999686,None,1211.7480847999686,1211.7480847999686,1,332.77039998210967,space,0.33277039998210967,1212.099887199991,1212.6144984999555,,,,,,,,,,,,,,,,,leonard,001,2023-12-20_14h58.01.875,game,2022.2.5,60.23943972490437,
15,0,15,0,,,,,,,,,,,,,,,,,,,,,,,3,1212.6144984999555,1212.6144984999555,1214.6138430999708,1215.6299219999928,None,1215.6299219999928,1215.6299219999928,1,324.0090999752283,space,0.3240090999752283,1215.995720399951,1216.4982059999602,,,,,,,,,,,,,,,,,leonard,001,2023-12-20_14h58.01.875,game,2022.2.5,60.23943972490437,
16,0,16,0,,,,,,,,,,,,,,,,,,,,,,,1,1216.4982059999602,1216.4982059999602,1216.4982059999602,1217.4983112000045,None,1217.4983112000045,1217.4983112000045,1,430.67600001813844,space,0.43067600001813844,1217.9619283999782,1218.463227899978,,,,,,,,,,,,,,,,,leonard,001,2023-12-20_14h58.01.875,game,2022.2.5,60.23943972490437,
17,0,17,0,,,,,,,,,,,,,,,,,,,,,,,2,1218.463227899978,1218.463227899978,1219.4640241999878,1220.4630572999595,None,1220.4630572999595,1220.4630572999595,1,314.5516000222415,space,0.3145516000222415,1220.7964640999562,1221.297815500002,,,,,,,,,,,,,,,,,leonard,001,2023-12-20_14h58.01.875,game,2022.2.5,60.23943972490437,
18,0,18,0,,,,,,,,,,,,,,,,,,,,,,,4,1221.297815500002,1221.297815500002,1224.2958415999892,1225.2959678999614,None,1225.2959678999614,1225.2959678999614,1,329.06289998209104,space,0.32906289998209104,1225.6466268000077,1226.149035899958,,,,,,,,,,,,,,,,,leonard,001,2023-12-20_14h58.01.875,game,2022.2.5,60.23943972490437,
19,0,19,0,,,,,,,,,,,,,,,,,,,,,,,3,1226.149035899958,1226.149035899958,1228.1628335999558,1229.162268199958,None,1229.162268199958,1229.162268199958,1,344.2207000334747,space,0.3442207000334747,1229.529089299962,1230.0313225999707,,,,,,,,,,,,,,,,,leonard,001,2023-12-20_14h58.01.875,game,2022.2.5,60.23943972490437,
20,0,20,0,,,,,,,,,,,,,,,,,,,,,,,3,1230.0313225999707,1230.0313225999707,1232.046136299963,1233.0468659999897,None,1233.0468659999897,1233.0468659999897,1,323.0148999718949,space,0.3230148999718949,1233.3957116999663,1233.896768799983,,,,,,,,,,,,,,,,,leonard,001,2023-12-20_14h58.01.875,game,2022.2.5,60.23943972490437,
21,0,21,0,,,,,,,,,,,,,,,,,,,,,,,3,1233.896768799983,1233.896768799983,1235.8951957999961,1236.8955437999684,None,1236.8955437999684,1236.8955437999684,1,346.7382999951951,space,0.3467382999951951,1237.2621185999596,1237.7625309999567,,,,,,,,,,,,,,,,,leonard,001,2023-12-20_14h58.01.875,game,2022.2.5,60.23943972490437,
22,0,22,0,,,,,,,,,,,,,,,,,,,,,,,3,1237.7625309999567,1237.7625309999567,1239.7624271999812,1240.7614896000014,None,1240.7614896000014,1240.7614896000014,1,375.7190000033006,space,0.3757190000033006,1241.1776460999972,1241.6790485999663,,,,,,,,,,,,,,,,,leonard,001,2023-12-20_14h58.01.875,game,2022.2.5,60.23943972490437,
23,0,23,0,,,,,,,,,,,,,,,,,,,,,,,4,1241.6790485999663,1241.6790485999663,1244.6782312999712,1245.6783218999626,None,1245.6783218999626,1245.6783218999626,1,306.92699999781325,space,0.30692699999781325,1246.0114434999996,1246.5124099999666,,,,,,,,,,,,,,,,,leonard,001,2023-12-20_14h58.01.875,game,2022.2.5,60.23943972490437,
24,0,24,0,,,,,,,,,,,,,,,,,,,,,,,1,1246.5124099999666,1246.5124099999666,1246.5124099999666,1247.5116493999958,None,1247.5116493999958,1247.5116493999958,1,362.62169998371974,space,0.36262169998371974,1247.8955511999666,1248.395808100002,,,,,,,,,,,,,,,,,leonard,001,2023-12-20_14h58.01.875,game,2022.2.5,60.23943972490437,
25,0,25,0,,,,,,,,,,,,,,,,,,,,,,,4,1248.395808100002,1248.395808100002,1251.411157399998,1252.4116694999975,None,1252.4116694999975,1252.4116694999975,1,333.20569997886196,space,0.33320569997886196,1252.76174669998,1253.261982899974,,,,,,,,,,,,,,,,,leonard,001,2023-12-20_14h58.01.875,game,2022.2.5,60.23943972490437,
26,0,26,0,,,,,,,,,,,,,,,,,,,,,,,1,1253.261982899974,1253.261982899974,1253.261982899974,1254.2623272999772,None,1254.2623272999772,1254.2623272999772,1,395.0310999643989,space,0.3950310999643989,1254.6933574999566,1255.1948468000046,,,,,,,,,,,,,,,,,leonard,001,2023-12-20_14h58.01.875,game,2022.2.5,60.23943972490437,
27,0,27,0,,,,,,,,,,,,,,,,,,,,,,,3,1255.1948468000046,1255.1948468000046,1257.1944652999518,1258.194794299954,None,1258.194794299954,1258.194794299954,1,358.04199997801334,space,0.35804199997801334,1258.5929849999957,1259.09426719998,,,,,,,,,,,,,,,,,leonard,001,2023-12-20_14h58.01.875,game,2022.2.5,60.23943972490437,
28,0,28,0,,,,,,,,,,,,,,,,,,,,,,,2,1259.09426719998,1259.09426719998,1260.0943234000006,1261.0940436999663,None,1261.0940436999663,1261.0940436999663,1,315.48509997082874,space,0.31548509997082874,1261.4418887000065,1261.9452755999519,,,,,,,,,,,,,,,,,leonard,001,2023-12-20_14h58.01.875,game,2022.2.5,60.23943972490437,
29,0,29,0,,,,,,,,,,,,,,,,,,,,,,,4,1261.9452755999519,1261.9452755999519,1264.9444501999533,1265.9438170999638,None,1265.9438170999638,1265.9438170999638,1,354.016600002069,space,0.354016600002069,1266.3253576999996,1266.8282386999927,,,,,,,,,,,,,,,,,leonard,001,2023-12-20_14h58.01.875,game,2022.2.5,60.23943972490437,
30,0,30,0,,,,,,,,,,,,,,,,,,,,,,,1,1266.8282386999927,1266.8282386999927,1266.8282386999927,1267.8280726000085,None,1267.8280726000085,1267.8280726000085,1,413.07800001231954,space,0.41307800001231954,1268.2759681000025,1268.777311999991,,,,,,,,,,,,,,,,,leonard,001,2023-12-20_14h58.01.875,game,2022.2.5,60.23943972490437,
31,0,31,0,,,,,,,,,,,,,,,,,,,,,,,3,1268.777311999991,1268.777311999991,1270.7776221999666,1271.7773031999823,None,1271.7773031999823,1271.7773031999823,1,320.0987000018358,space,0.3200987000018358,1272.1252360999933,1272.6267778999754,,,,,,,,,,,,,,,,,leonard,001,2023-12-20_14h58.01.875,game,2022.2.5,60.23943972490437,
32,0,32,0,,,,,,,,,,,,,,,,,,,,,,,1,1272.6267778999754,1272.6267778999754,1272.6267778999754,1273.6276254999684,None,1273.6276254999684,1273.6276254999684,1,366.3739999756217,space,0.3663739999756217,1274.024931599968,1274.527714899974,,,,,,,,,,,,,,,,,leonard,001,2023-12-20_14h58.01.875,game,2022.2.5,60.23943972490437,
33,0,33,0,,,,,,,,,,,,,,,,,,,,,,,1,1274.527714899974,1274.527714899974,1274.527714899974,1275.5273609999567,None,1275.5273609999567,1275.5273609999567,1,353.8008999894373,space,0.3538008999894373,1275.9107150000054,1276.410826199979,,,,,,,,,,,,,,,,,leonard,001,2023-12-20_14h58.01.875,game,2022.2.5,60.23943972490437,
34,0,34,0,,,,,,,,,,,,,,,,,,,,,,,4,1276.410826199979,1276.410826199979,1279.426566899987,1280.4264124999754,None,1280.4264124999754,1280.4264124999754,1,327.1068999893032,space,0.3271068999893032,1280.7917696000077,1281.2932713999762,,,,,,,,,,,,,,,,,leonard,001,2023-12-20_14h58.01.875,game,2022.2.5,60.23943972490437,
35,0,35,0,,,,,,,,,,,,,,,,,,,,,,,4,1281.2932713999762,1281.2932713999762,1284.2933196999948,1285.2928417999647,None,1285.2928417999647,1285.2928417999647,1,301.10129999229684,space,0.30110129999229684,1285.6242723999894,1286.1264301000047,,,,,,,,,,,,,,,,,leonard,001,2023-12-20_14h58.01.875,game,2022.2.5,60.23943972490437,
36,0,36,0,,,,,,,,,,,,,,,,,,,,,,,1,1286.1264301000047,1286.1264301000047,1286.1264301000047,1287.1266158999642,None,1287.1266158999642,1287.1266158999642,1,322.3862000158988,space,0.3223862000158988,1287.4770074999542,1287.9778140999842,,,,,,,,,,,,,,,,,leonard,001,2023-12-20_14h58.01.875,game,2022.2.5,60.23943972490437,
37,0,37,0,,,,,,,,,,,,,,,,,,,,,,,3,1287.9778140999842,1287.9778140999842,1289.9926981999888,1290.9927715999656,None,1290.9927715999656,1290.9927715999656,1,312.9639000399038,space,0.3129639000399038,1291.3403140999726,1291.8425772999763,,,,,,,,,,,,,,,,,leonard,001,2023-12-20_14h58.01.875,game,2022.2.5,60.23943972490437,
38,0,38,0,,,,,,,,,,,,,,,,,,,,,,,1,1291.8425772999763,1291.8425772999763,1291.8425772999763,1292.8435404999764,None,1292.8435404999764,1292.8435404999764,1,342.33539999695495,space,0.34233539999695495,1293.2246621999657,1293.7269720999757,,,,,,,,,,,,,,,,,leonard,001,2023-12-20_14h58.01.875,game,2022.2.5,60.23943972490437,
39,0,39,0,,,,,,,,,,,,,,,,,,,,,,,2,1293.7269720999757,1293.7269720999757,1294.7261115000001,1295.7254159000004,None,1295.7254159000004,1295.7254159000004,1,331.8491000100039,space,0.3318491000100039,1296.0901376999682,1296.592621699965,,,,,,,,,,,,,,,,,leonard,001,2023-12-20_14h58.01.875,game,2022.2.5,60.23943972490437,
40,0,40,0,,,,,,,,,,,,,,,,,,,,,,,2,1296.592621699965,1296.592621699965,1297.5928255000035,1298.5920013999566,None,1298.5920013999566,1298.5920013999566,1,305.15359999844804,space,0.30515359999844804,1298.9243019999703,1299.4426391999586,,,,,,,,,,,,,,,,,leonard,001,2023-12-20_14h58.01.875,game,2022.2.5,60.23943972490437,
41,0,41,0,,,,,,,,,,,,,,,,,,,,,,,1,1299.4426391999586,1299.4426391999586,1299.4426391999586,1300.4589242999791,None,1300.4589242999791,1300.4589242999791,1,334.42839997587726,space,0.33442839997587726,1300.841258200002,1301.343112099974,,,,,,,,,,,,,,,,,leonard,001,2023-12-20_14h58.01.875,game,2022.2.5,60.23943972490437,
42,0,42,0,,,,,,,,,,,,,,,,,,,,,,,3,1301.343112099974,1301.343112099974,1303.341949899972,1304.3418823999818,None,1304.3418823999818,1304.3418823999818,1,332.38730003358796,space,0.33238730003358796,1304.7064036999946,1305.209866499994,,,,,,,,,,,,,,,,,leonard,001,2023-12-20_14h58.01.875,game,2022.2.5,60.23943972490437,
,,,,,,,,,,,,,,,,,,,,,,,,,,,,,,,,,,,,,,,,1305.209866499994,1305.209866499994,space,24.87981019995641,,,,,,,,,,,,,leonard,001,2023-12-20_14h58.01.875,game,2022.2.5,60.23943972490437,
,,,,0,0,0,0,,,,,,,,,,,,,,,,,,,,,,,,,,,,,,,,,,,,,1330.1224029999576,1330.1224029999576,num_8,3.0155341000063345,,,,,,,,,leonard,001,2023-12-20_14h58.01.875,game,2022.2.5,60.23943972490437,
,,,,1,0,1,0,,,,,,,,,,,,,,,,,,,,,,,,,,,,,,,,,,,,,1333.5380425999756,1333.5380425999756,num_9,2.0001604999997653,,,,,,,,,leonard,001,2023-12-20_14h58.01.875,game,2022.2.5,60.23943972490437,
,,,,2,0,2,0,,,,,,,,,,,,,,,,,,,,,,,,,,,,,,,,,,,,,1335.92191559996,1335.92191559996,num_4,3.087611700000707,,,,,,,,,leonard,001,2023-12-20_14h58.01.875,game,2022.2.5,60.23943972490437,
,,,,3,0,3,0,,,,,,,,,,,,,,,,,,,,,,,,,,,,,,,,,,,,,1339.3884328999557,1339.3884328999557,num_7,2.0050809999811463,,,,,,,,,leonard,001,2023-12-20_14h58.01.875,game,2022.2.5,60.23943972490437,
,,,,4,0,4,0,,,,,,,,,,,,,,,,,,,,,,,,,,,,,,,,,,,,,1341.805078699952,1341.805078699952,num_1,2.8289499999955297,,,,,,,,,leonard,001,2023-12-20_14h58.01.875,game,2022.2.5,60.23943972490437,
,,,,5,0,5,0,,,,,,,,,,,,,,,,,,,,,,,,,,,,,,,,,,,,,1345.0216685999767,1345.0216685999767,num_0,1.7160097999731079,,,,,,,,,leonard,001,2023-12-20_14h58.01.875,game,2022.2.5,60.23943972490437,
,,,,6,0,6,0,,,,,,,,,,,,,,,,,,,,,,,,,,,,,,,,,,,,,1347.1547881999868,1347.1547881999868,num_6,3.1281665000133216,,,,,,,,,leonard,001,2023-12-20_14h58.01.875,game,2022.2.5,60.23943972490437,
,,,,7,0,7,0,,,,,,,,,,,,,,,,,,,,,,,,,,,,,,,,,,,,,1350.6714717999566,1350.6714717999566,num_7,8.034969300031662,,,,,,,,,leonard,001,2023-12-20_14h58.01.875,game,2022.2.5,60.23943972490437,
,,,,8,0,8,0,,,,,,,,,,,,,,,,,,,,,,,,,,,,,,,,,,,,,1359.070617999998,1359.070617999998,num_1,1.7710942000267096,,,,,,,,,leonard,001,2023-12-20_14h58.01.875,game,2022.2.5,60.23943972490437,
,,,,9,0,9,0,,,,,,,,,,,,,,,,,,,,,,,,,,,,,,,,,,,,,1361.2385109000024,1361.2385109000024,num_6,4.227709700004198,,,,,,,,,leonard,001,2023-12-20_14h58.01.875,game,2022.2.5,60.23943972490437,
,,,,10,0,10,0,,,,,,,,,,,,,,,,,,,,,,,,,,,,,,,,,,,,,1365.853780400008,1365.853780400008,num_6,3.419955499994103,,,,,,,,,leonard,001,2023-12-20_14h58.01.875,game,2022.2.5,60.23943972490437,
,,,,11,0,11,0,,,,,,,,,,,,,,,,,,,,,,,,,,,,,,,,,,,,,1369.670242699969,1369.670242699969,num_8,1.7890417000162415,,,,,,,,,leonard,001,2023-12-20_14h58.01.875,game,2022.2.5,60.23943972490437,
,,,,12,0,12,0,,,,,,,,,,,,,,,,,,,,,,,,,,,,,,,,,,,,,1371.8700069999904,1371.8700069999904,num_6,2.2916774999466725,,,,,,,,,leonard,001,2023-12-20_14h58.01.875,game,2022.2.5,60.23943972490437,
,,,,13,0,13,0,,,,,,,,,,,,,,,,,,,,,,,,,,,,,,,,,,,,,1374.520103799994,1374.520103799994,num_9,2.2656158999889158,,,,,,,,,leonard,001,2023-12-20_14h58.01.875,game,2022.2.5,60.23943972490437,
,,,,14,0,14,0,,,,,,,,,,,,,,,,,,,,,,,,,,,,,,,,,,,,,1377.186668099952,1377.186668099952,num_6,1.8870029000099748,,,,,,,,,leonard,001,2023-12-20_14h58.01.875,game,2022.2.5,60.23943972490437,
,,,,15,0,15,0,,,,,,,,,,,,,,,,,,,,,,,,,,,,,,,,,,,,,1379.4695321999607,1379.4695321999607,num_0,2.6128369999933057,,,,,,,,,leonard,001,2023-12-20_14h58.01.875,game,2022.2.5,60.23943972490437,
,,,,16,0,16,0,,,,,,,,,,,,,,,,,,,,,,,,,,,,,,,,,,,,,1382.4698762999615,1382.4698762999615,num_1,1.8689897999865934,,,,,,,,,leonard,001,2023-12-20_14h58.01.875,game,2022.2.5,60.23943972490437,
,,,,17,0,17,0,,,,,,,,,,,,,,,,,,,,,,,,,,,,,,,,,,,,,1384.753030199965,1384.753030199965,num_5,2.7929274000343867,,,,,,,,,leonard,001,2023-12-20_14h58.01.875,game,2022.2.5,60.23943972490437,
,,,,18,0,18,0,,,,,,,,,,,,,,,,,,,,,,,,,,,,,,,,,,,,,1387.935968899983,1387.935968899983,num_5,3.1465344000025652,,,,,,,,,leonard,001,2023-12-20_14h58.01.875,game,2022.2.5,60.23943972490437,
,,,,19,0,19,0,,,,,,,,,,,,,,,,,,,,,,,,,,,,,,,,,,,,,1391.4688533999724,1391.4688533999724,num_8,2.285622199997306,,,,,,,,,leonard,001,2023-12-20_14h58.01.875,game,2022.2.5,60.23943972490437,
,,,,20,0,20,0,,,,,,,,,,,,,,,,,,,,,,,,,,,,,,,,,,,,,1394.1356205999618,1394.1356205999618,num_9,2.306278600008227,,,,,,,,,leonard,001,2023-12-20_14h58.01.875,game,2022.2.5,60.23943972490437,
,,,,21,0,21,0,,,,,,,,,,,,,,,,,,,,,,,,,,,,,,,,,,,,,1396.8354228999815,1396.8354228999815,num_8,2.014416499994695,,,,,,,,,leonard,001,2023-12-20_14h58.01.875,game,2022.2.5,60.23943972490437,
,,,,22,0,22,0,,,,,,,,,,,,,,,,,,,,,,,,,,,,,,,,,,,,,1399.2017794999992,1399.2017794999992,num_9,3.10471939999843,,,,,,,,,leonard,001,2023-12-20_14h58.01.875,game,2022.2.5,60.23943972490437,
,,,,23,0,23,0,,,,,,,,,,,,,,,,,,,,,,,,,,,,,,,,,,,,,1402.6851582999807,1402.6851582999807,num_1,2.612890899996273,,,,,,,,,leonard,001,2023-12-20_14h58.01.875,game,2022.2.5,60.23943972490437,
,,,,24,0,24,0,,,,,,,,,,,,,,,,,,,,,,,,,,,,,,,,,,,,,1405.7016018999857,1405.7016018999857,num_1,2.1164913999964483,,,,,,,,,leonard,001,2023-12-20_14h58.01.875,game,2022.2.5,60.23943972490437,
,,,,25,0,25,0,,,,,,,,,,,,,,,,,,,,,,,,,,,,,,,,,,,,,1408.2684577999753,1408.2684577999753,num_8,3.3341651000082493,,,,,,,,,leonard,001,2023-12-20_14h58.01.875,game,2022.2.5,60.23943972490437,
,,,,26,0,26,0,,,,,,,,,,,,,,,,,,,,,,,,,,,,,,,,,,,,,1412.0011187999626,1412.0011187999626,num_3,3.361034600005951,,,,,,,,,leonard,001,2023-12-20_14h58.01.875,game,2022.2.5,60.23943972490437,
,,,,27,0,27,0,,,,,,,,,,,,,,,,,,,,,,,,,,,,,,,,,,,,,1415.7680034000077,1415.7680034000077,num_0,5.386129599995911,,,,,,,,,leonard,001,2023-12-20_14h58.01.875,game,2022.2.5,60.23943972490437,
,,,,28,0,28,0,,,,,,,,,,,,,,,,,,,,,,,,,,,,,,,,,,,,,1421.5509078999748,1421.5509078999748,num_6,17.795308400003705,,,,,,,,,leonard,001,2023-12-20_14h58.01.875,game,2022.2.5,60.23943972490437,
,,,,29,0,29,0,,,,,,,,,,,,,,,,,,,,,,,,,,,,,,,,,,,,,1439.7330689000082,1439.7330689000082,num_2,1.725663999968674,,,,,,,,,leonard,001,2023-12-20_14h58.01.875,game,2022.2.5,60.23943972490437,
,,,,30,0,30,0,,,,,,,,,,,,,,,,,,,,,,,,,,,,,,,,,,,,,1441.8494716999703,1441.8494716999703,num_8,3.697304500034079,,,,,,,,,leonard,001,2023-12-20_14h58.01.875,game,2022.2.5,60.23943972490437,
,,,,31,0,31,0,,,,,,,,,,,,,,,,,,,,,,,,,,,,,,,,,,,,,1445.932676700002,1445.932676700002,num_9,2.542131599970162,,,,,,,,,leonard,001,2023-12-20_14h58.01.875,game,2022.2.5,60.23943972490437,
,,,,32,0,32,0,,,,,,,,,,,,,,,,,,,,,,,,,,,,,,,,,,,,,1448.8991031000041,1448.8991031000041,num_8,1.711650799959898,,,,,,,,,leonard,001,2023-12-20_14h58.01.875,game,2022.2.5,60.23943972490437,
,,,,33,0,33,0,,,,,,,,,,,,,,,,,,,,,,,,,,,,,,,,,,,,,1450.9992962999968,1450.9992962999968,num_7,2.1633663999964483,,,,,,,,,leonard,001,2023-12-20_14h58.01.875,game,2022.2.5,60.23943972490437,
,,,,34,0,34,0,,,,,,,,,,,,,,,,,,,,,,,,,,,,,,,,,,,,,1453.5489965999732,1453.5489965999732,num_4,3.8776248999638483,,,,,,,,,leonard,001,2023-12-20_14h58.01.875,game,2022.2.5,60.23943972490437,
,,,,35,0,35,0,,,,,,,,,,,,,,,,,,,,,,,,,,,,,,,,,,,,,1457.782121199998,1457.782121199998,num_8,1.5324536999687552,,,,,,,,,leonard,001,2023-12-20_14h58.01.875,game,2022.2.5,60.23943972490437,
,,,,36,0,36,0,,,,,,,,,,,,,,,,,,,,,,,,,,,,,,,,,,,,,1459.715517500008,1459.715517500008,num_0,2.918673000007402,,,,,,,,,leonard,001,2023-12-20_14h58.01.875,game,2022.2.5,60.23943972490437,
,,,,37,0,37,0,,,,,,,,,,,,,,,,,,,,,,,,,,,,,,,,,,,,,1463.0485115000047,1463.0485115000047,num_9,1.642265199974645,,,,,,,,,leonard,001,2023-12-20_14h58.01.875,game,2022.2.5,60.23943972490437,
,,,,38,0,38,0,,,,,,,,,,,,,,,,,,,,,,,,,,,,,,,,,,,,,1465.0817326999968,1465.0817326999968,num_6,7.208526199974585,,,,,,,,,leonard,001,2023-12-20_14h58.01.875,game,2022.2.5,60.23943972490437,
,,,,39,0,39,0,,,,,,,,,,,,,,,,,,,,,,,,,,,,,,,,,,,,,1472.664678399975,1472.664678399975,num_8,3.403423500014469,,,,,,,,,leonard,001,2023-12-20_14h58.01.875,game,2022.2.5,60.23943972490437,
,,,,40,0,40,0,,,,,,,,,,,,,,,,,,,,,,,,,,,,,,,,,,,,,1476.447688299988,1476.447688299988,num_5,2.4432163999881595,,,,,,,,,leonard,001,2023-12-20_14h58.01.875,game,2022.2.5,60.23943972490437,
,,,,41,0,41,0,,,,,,,,,,,,,,,,,,,,,,,,,,,,,,,,,,,,,1479.2646719999611,1479.2646719999611,None,,,,,,,,,,leonard,001,2023-12-20_14h58.01.875,game,2022.2.5,60.23943972490437,
,,,,,,,,,,,,,,,,,,,,,,,,,,,,,,,,,,,,,,,,,,,,,,,,1480.1166510999901,1480.1166510999901,space,7.428151400003117,,,,,leonard,001,2023-12-20_14h58.01.875,game,2022.2.5,60.23943972490437,
,,,,,,,,,,,,,,,,,,,,,,,,,,,,,,,,,,,,,,,,,,,,,,,,,,,,2597.5604319999693,2597.5604319999693,space,190.30144960002508,leonard,001,2023-12-20_14h58.01.875,game,2022.2.5,60.23943972490437,
,,,,,,,,,,,,,,,,,,,,,,2787.891259199998,2787.891259199998,space,4.455182200006675,,,,,,,,,,,,,,,,,,,,,,,,,,,,,,,leonard,001,2023-12-20_14h58.01.875,game,2022.2.5,60.23943972490437,
,,,,,,,,0,0,0,0,,,,,,,,,,,,,,,3,2792.3778691999614,2792.3778691999614,2794.3778484999784,2795.3775612000027,None,2795.3775612000027,2795.3775612000027,1,377.7241000207141,space,0.3777241000207141,2795.793517699989,2796.294400999963,,,,,,,,,,,,,,,,,leonard,001,2023-12-20_14h58.01.875,game,2022.2.5,60.23943972490437,
,,,,,,,,1,0,1,0,,,,,,,,,,,,,,,3,2796.294400999963,2796.294400999963,2798.296600700007,2799.294294399966,None,2799.294294399966,2799.294294399966,1,380.5255999905057,space,0.3805255999905057,2799.7112413999857,2800.2118120999658,,,,,,,,,,,,,,,,,leonard,001,2023-12-20_14h58.01.875,game,2022.2.5,60.23943972490437,
,,,,,,,,2,0,2,0,,,,,,,,,,,,,,,1,2800.2118120999658,2800.2118120999658,2800.2118120999658,2801.228690299962,None,2801.228690299962,2801.228690299962,1,383.0978000187315,space,0.3830978000187315,2801.661980199977,2802.1632332999725,,,,,,,,,,,,,,,,,leonard,001,2023-12-20_14h58.01.875,game,2022.2.5,60.23943972490437,
,,,,,,,,3,0,3,0,,,,,,,,,,,,,,,2,2802.1632332999725,2802.1632332999725,2803.1781368000084,2804.177744899993,None,2804.177744899993,2804.177744899993,1,361.02469998877496,space,0.36102469998877496,2804.576089799986,2805.079449999961,,,,,,,,,,,,,,,,,leonard,001,2023-12-20_14h58.01.875,game,2022.2.5,60.23943972490437,
,,,,,,,,4,0,4,0,,,,,,,,,,,,,,,3,2805.079449999961,2805.079449999961,2807.094141599955,2808.09402389999,None,2808.09402389999,2808.09402389999,1,348.5891000018455,space,0.3485891000018455,2808.460724799952,2808.9631391000003,,,,,,,,,,,,,,,,,leonard,001,2023-12-20_14h58.01.875,game,2022.2.5,60.23943972490437,
,,,,,,,,5,0,5,0,,,,,,,,,,,,,,,3,2808.9631391000003,2808.9631391000003,2810.9767595999874,2811.9769269999815,None,2811.9769269999815,2811.9769269999815,1,329.91189998574555,space,0.32991189998574555,2812.3270732999663,2812.827395499975,,,,,,,,,,,,,,,,,leonard,001,2023-12-20_14h58.01.875,game,2022.2.5,60.23943972490437,
,,,,,,,,6,0,6,0,,,,,,,,,,,,,,,2,2812.827395499975,2812.827395499975,2813.829888099979,2814.8280083999853,None,2814.8280083999853,2814.8280083999853,1,334.6800999715924,space,0.3346800999715924,2815.1764886999736,2815.6770464999718,,,,,,,,,,,,,,,,,leonard,001,2023-12-20_14h58.01.875,game,2022.2.5,60.23943972490437,
,,,,,,,,7,0,7,0,,,,,,,,,,,,,,,1,2815.6770464999718,2815.6770464999718,2815.6770464999718,2816.676543599984,None,2816.676543599984,2816.676543599984,1,382.4288999894634,space,0.3824288999894634,2817.092414099956,2817.5931570999674,,,,,,,,,,,,,,,,,leonard,001,2023-12-20_14h58.01.875,game,2022.2.5,60.23943972490437,
,,,,,,,,8,0,8,0,,,,,,,,,,,,,,,2,2817.5931570999674,2817.5931570999674,2818.5929404000053,2819.5928721999517,None,2819.5928721999517,2819.5928721999517,1,369.93080005049706,space,0.36993080005049706,2819.9923265999532,2820.510947700008,,,,,,,,,,,,,,,,,leonard,001,2023-12-20_14h58.01.875,game,2022.2.5,60.23943972490437,
,,,,,,,,9,0,9,0,,,,,,,,,,,,,,,3,2820.510947700008,2820.510947700008,2822.509578600002,2823.5266743999673,None,2823.5266743999673,2823.5266743999673,1,372.54730000859126,space,0.37254730000859126,2823.9288988999906,2824.4454262999934,,,,,,,,,,,,,,,,,leonard,001,2023-12-20_14h58.01.875,game,2022.2.5,60.23943972490437,
,,,,,,,,10,0,10,0,,,,,,,,,,,,,,,1,2824.4454262999934,2824.4454262999934,2824.4454262999934,2825.4610872999765,None,2825.4610872999765,2825.4610872999765,1,389.5741000305861,space,0.3895741000305861,2825.892076899996,2826.3945721999626,,,,,,,,,,,,,,,,,leonard,001,2023-12-20_14h58.01.875,game,2022.2.5,60.23943972490437,
,,,,,,,,11,0,11,0,,,,,,,,,,,,,,,1,2826.3945721999626,2826.3945721999626,2826.3945721999626,2827.3934838999994,None,2827.3934838999994,2827.3934838999994,1,377.46280001010746,space,0.37746280001010746,2827.8094960000017,2828.3107237999793,,,,,,,,,,,,,,,,,leonard,001,2023-12-20_14h58.01.875,game,2022.2.5,60.23943972490437,
,,,,,,,,12,0,12,0,,,,,,,,,,,,,,,3,2828.3107237999793,2828.3107237999793,2830.3113176999614,2831.308995099971,None,2831.308995099971,2831.308995099971,1,374.0865000290796,space,0.3740865000290796,2831.7089731000015,2832.211317199981,,,,,,,,,,,,,,,,,leonard,001,2023-12-20_14h58.01.875,game,2022.2.5,60.23943972490437,
,,,,,,,,13,0,13,0,,,,,,,,,,,,,,,4,2832.211317199981,2832.211317199981,2835.2262944999966,2836.2259243999724,None,2836.2259243999724,2836.2259243999724,1,385.3252000408247,space,0.3853252000408247,2836.626459799998,2837.1279909999575,,,,,,,,,,,,,,,,,leonard,001,2023-12-20_14h58.01.875,game,2022.2.5,60.23943972490437,
,,,,,,,,14,0,14,0,,,,,,,,,,,,,,,1,2837.1279909999575,2837.1279909999575,2837.1279909999575,2838.142499199952,None,2838.142499199952,2838.142499199952,1,413.04340003989637,space,0.41304340003989637,2838.5907163000084,2839.092955800006,,,,,,,,,,,,,,,,,leonard,001,2023-12-20_14h58.01.875,game,2022.2.5,60.23943972490437,
,,,,,,,,15,0,15,0,,,,,,,,,,,,,,,2,2839.092955800006,2839.092955800006,2840.093149299966,2841.0918233999982,None,2841.0918233999982,2841.0918233999982,1,327.6432999991812,space,0.3276432999991812,2841.442598099995,2841.942552399996,,,,,,,,,,,,,,,,,leonard,001,2023-12-20_14h58.01.875,game,2022.2.5,60.23943972490437,
,,,,,,,,16,0,16,0,,,,,,,,,,,,,,,1,2841.942552399996,2841.942552399996,2841.942552399996,2842.9427810999914,None,2842.9427810999914,2842.9427810999914,1,341.2697999738157,space,0.3412697999738157,2843.3244586999645,2843.8251308999606,,,,,,,,,,,,,,,,,leonard,001,2023-12-20_14h58.01.875,game,2022.2.5,60.23943972490437,
,,,,,,,,17,0,17,0,,,,,,,,,,,,,,,4,2843.8251308999606,2843.8251308999606,2846.82481999998,2847.824927699985,None,2847.824927699985,2847.824927699985,1,385.86290000239387,space,0.38586290000239387,2848.2415154000046,2848.7416438999935,,,,,,,,,,,,,,,,,leonard,001,2023-12-20_14h58.01.875,game,2022.2.5,60.23943972490437,
,,,,,,,,18,0,18,0,,,,,,,,,,,,,,,4,2848.7416438999935,2848.7416438999935,2851.7414058999857,2852.7413287999807,None,2852.7413287999807,2852.7413287999807,1,326.05480001075193,space,0.32605480001075193,2853.0921349999844,2853.5931143999915,,,,,,,,,,,,,,,,,leonard,001,2023-12-20_14h58.01.875,game,2022.2.5,60.23943972490437,
,,,,,,,,19,0,19,0,,,,,,,,,,,,,,,1,2853.5931143999915,2853.5931143999915,2853.5931143999915,2854.607179899991,None,2854.607179899991,2854.607179899991,1,340.69799998542294,space,0.34069799998542294,2854.989210299973,2855.491605899995,,,,,,,,,,,,,,,,,leonard,001,2023-12-20_14h58.01.875,game,2022.2.5,60.23943972490437,
,,,,,,,,20,0,20,0,,,,,,,,,,,,,,,2,2855.491605899995,2855.491605899995,2856.493136999954,2857.4912740999716,None,2857.4912740999716,2857.4912740999716,1,344.3523999885656,space,0.3443523999885656,2857.857418700005,2858.3599043999566,,,,,,,,,,,,,,,,,leonard,001,2023-12-20_14h58.01.875,game,2022.2.5,60.23943972490437,
,,,,,,,,21,0,21,0,,,,,,,,,,,,,,,2,2858.3599043999566,2858.3599043999566,2859.375864600006,2860.3747440999723,None,2860.3747440999723,2860.3747440999723,1,316.87919999239966,space,0.31687919999239966,2860.708063500002,2861.2086778999656,,,,,,,,,,,,,,,,,leonard,001,2023-12-20_14h58.01.875,game,2022.2.5,60.23943972490437,
,,,,,,,,22,0,22,0,,,,,,,,,,,,,,,3,2861.2086778999656,2861.2086778999656,2863.2239714000025,2864.2239101000014,None,2864.2239101000014,2864.2239101000014,1,315.5128000071272,space,0.3155128000071272,2864.5738801999833,2865.0742705999874,,,,,,,,,,,,,,,,,leonard,001,2023-12-20_14h58.01.875,game,2022.2.5,60.23943972490437,
,,,,,,,,23,0,23,0,,,,,,,,,,,,,,,3,2865.0742705999874,2865.0742705999874,2867.0745486999513,2868.074537599983,None,2868.074537599983,2868.074537599983,1,313.18220001412556,space,0.31318220001412556,2868.4227418999653,2868.9242972999928,,,,,,,,,,,,,,,,,leonard,001,2023-12-20_14h58.01.875,game,2022.2.5,60.23943972490437,
,,,,,,,,24,0,24,0,,,,,,,,,,,,,,,4,2868.9242972999928,2868.9242972999928,2871.923724799999,2872.923428899958,None,2872.923428899958,2872.923428899958,1,320.4445999581367,space,0.3204445999581367,2873.288356999983,2873.7901882999577,,,,,,,,,,,,,,,,,leonard,001,2023-12-20_14h58.01.875,game,2022.2.5,60.23943972490437,
,,,,,,,,25,0,25,0,,,,,,,,,,,,,,,1,2873.7901882999577,2873.7901882999577,2873.7901882999577,2874.7901109000086,None,2874.7901109000086,2874.7901109000086,1,389.51300003100187,space,0.38951300003100187,2875.2070559999556,2875.7076520999544,,,,,,,,,,,,,,,,,leonard,001,2023-12-20_14h58.01.875,game,2022.2.5,60.23943972490437,
,,,,,,,,26,0,26,0,,,,,,,,,,,,,,,3,2875.7076520999544,2875.7076520999544,2877.723293899966,2878.7073101999704,None,2878.7073101999704,2878.7073101999704,1,400.4545999923721,space,0.4004545999923721,2879.122955299972,2879.6232189,,,,,,,,,,,,,,,,,leonard,001,2023-12-20_14h58.01.875,game,2022.2.5,60.23943972490437,
,,,,,,,,27,0,27,0,,,,,,,,,,,,,,,4,2879.6232189,2879.6232189,2882.6227929999586,2883.6231821999536,None,2883.6231821999536,2883.6231821999536,1,356.0138999600895,space,0.3560138999600895,2884.02140909998,2884.5232337999623,,,,,,,,,,,,,,,,,leonard,001,2023-12-20_14h58.01.875,game,2022.2.5,60.23943972490437,
,,,,,,,,28,0,28,0,,,,,,,,,,,,,,,3,2884.5232337999623,2884.5232337999623,2886.5231732999673,2887.5230372999795,None,2887.5230372999795,2887.5230372999795,1,296.4399000047706,space,0.2964399000047706,2887.854476599954,2888.3563134999713,,,,,,,,,,,,,,,,,leonard,001,2023-12-20_14h58.01.875,game,2022.2.5,60.23943972490437,
,,,,,,,,29,0,29,0,,,,,,,,,,,,,,,1,2888.3563134999713,2888.3563134999713,2888.3563134999713,2889.3560701999813,None,2889.3560701999813,2889.3560701999813,1,359.78880000766367,space,0.35978880000766367,2889.754096599994,2890.2570383999846,,,,,,,,,,,,,,,,,leonard,001,2023-12-20_14h58.01.875,game,2022.2.5,60.23943972490437,
,,,,,,,,30,0,30,0,,,,,,,,,,,,,,,1,2890.2570383999846,2890.2570383999846,2890.2570383999846,2891.271898099978,None,2891.271898099978,2891.271898099978,1,323.14759999280795,space,0.32314759999280795,2891.6215215999982,2892.1248823999777,,,,,,,,,,,,,,,,,leonard,001,2023-12-20_14h58.01.875,game,2022.2.5,60.23943972490437,
,,,,,,,,31,0,31,0,,,,,,,,,,,,,,,3,2892.1248823999777,2892.1248823999777,2894.1390963000013,2895.1393447999726,None,2895.1393447999726,2895.1393447999726,1,319.99819999327883,space,0.31999819999327883,2895.5036860999535,2896.0064902000013,,,,,,,,,,,,,,,,,leonard,001,2023-12-20_14h58.01.875,game,2022.2.5,60.23943972490437,
,,,,,,,,32,0,32,0,,,,,,,,,,,,,,,2,2896.0064902000013,2896.0064902000013,2897.005846699991,2898.00569739996,None,2898.00569739996,2898.00569739996,1,357.936599990353,space,0.357936599990353,2898.403820999956,2898.9057506999816,,,,,,,,,,,,,,,,,leonard,001,2023-12-20_14h58.01.875,game,2022.2.5,60.23943972490437,
,,,,,,,,33,0,33,0,,,,,,,,,,,,,,,4,2898.9057506999816,2898.9057506999816,2901.9053424999584,2902.906053099956,None,2902.906053099956,2902.906053099956,1,409.2782000079751,space,0.4092782000079751,2903.354258199979,2903.856061199971,,,,,,,,,,,,,,,,,leonard,001,2023-12-20_14h58.01.875,game,2022.2.5,60.23943972490437,
,,,,,,,,34,0,34,0,,,,,,,,,,,,,,,3,2903.856061199971,2903.856061199971,2905.855657499982,2906.8560149999685,None,2906.8560149999685,2906.8560149999685,1,331.84800000162795,space,0.33184800000162795,2907.2203370999778,2907.722270899976,,,,,,,,,,,,,,,,,leonard,001,2023-12-20_14h58.01.875,game,2022.2.5,60.23943972490437,
,,,,,,,,35,0,35,0,,,,,,,,,,,,,,,4,2907.722270899976,2907.722270899976,2910.7215839999844,2911.7215440999717,None,2911.7215440999717,2911.7215440999717,1,314.2700999742374,space,0.3142700999742374,2912.0695459999843,2912.575792799995,,,,,,,,,,,,,,,,,leonard,001,2023-12-20_14h58.01.875,game,2022.2.5,60.23943972490437,
,,,,,,,,36,0,36,0,,,,,,,,,,,,,,,3,2912.575792799995,2912.575792799995,2914.588515099953,2915.5885024999734,None,2915.5885024999734,2915.5885024999734,1,335.1287000114098,space,0.3351287000114098,2915.9529339,2916.4545721999602,,,,,,,,,,,,,,,,,leonard,001,2023-12-20_14h58.01.875,game,2022.2.5,60.23943972490437,
,,,,,,,,37,0,37,0,,,,,,,,,,,,,,,4,2916.4545721999602,2916.4545721999602,2919.4545263999607,2920.4545534999925,None,2920.4545534999925,2920.4545534999925,1,324.95249999919906,space,0.32495249999919906,2920.8197618999984,2921.3211655999767,,,,,,,,,,,,,,,,,leonard,001,2023-12-20_14h58.01.875,game,2022.2.5,60.23943972490437,
,,,,,,,,38,0,38,0,,,,,,,,,,,,,,,1,2921.3211655999767,2921.3211655999767,2921.3211655999767,2922.321532299975,None,2922.321532299975,2922.321532299975,1,379.3035999988206,space,0.3793035999988206,2922.736166699964,2923.2380208999966,,,,,,,,,,,,,,,,,leonard,001,2023-12-20_14h58.01.875,game,2022.2.5,60.23943972490437,
,,,,,,,,39,0,39,0,,,,,,,,,,,,,,,2,2923.2380208999966,2923.2380208999966,2924.238090300001,2925.2373677999713,None,2925.2373677999713,2925.2373677999713,1,334.51070002047345,space,0.33451070002047345,2925.602270399977,2926.106287500006,,,,,,,,,,,,,,,,,leonard,001,2023-12-20_14h58.01.875,game,2022.2.5,60.23943972490437,
,,,,,,,,40,0,40,0,,,,,,,,,,,,,,,3,2926.106287500006,2926.106287500006,2928.1217735999962,2929.1212568999617,None,2929.1212568999617,2929.1212568999617,1,355.0775999901816,space,0.3550775999901816,2929.5183357999776,2930.020469899988,,,,,,,,,,,,,,,,,leonard,001,2023-12-20_14h58.01.875,game,2022.2.5,60.23943972490437,
,,,,,,,,41,0,41,0,,,,,,,,,,,,,,,2,2930.020469899988,2930.020469899988,2931.021459099953,2932.020462799992,None,2932.020462799992,2932.020462799992,1,343.54050003457814,space,0.34354050003457814,2932.401520799962,2932.905202099995,,,,,,,,,,,,,,,,,leonard,001,2023-12-20_14h58.01.875,game,2022.2.5,60.23943972490437,
,,,,,,,,42,0,42,0,,,,,,,,,,,,,,,1,2932.905202099995,2932.905202099995,2932.905202099995,2933.9052827999694,None,2933.9052827999694,2933.9052827999694,1,370.641199988313,space,0.370641199988313,2934.320072499977,2934.8205584999523,,,,,,,,,,,,,,,,,leonard,001,2023-12-20_14h58.01.875,game,2022.2.5,60.23943972490437,
,,,,,,,,43,0,43,0,,,,,,,,,,,,,,,3,2934.8205584999523,2934.8205584999523,2936.820442299999,2937.8199873999692,None,2937.8199873999692,2937.8199873999692,1,351.3968999614008,space,0.3513968999614008,2938.2019501999603,2938.7042931999895,,,,,,,,,,,,,,,,,leonard,001,2023-12-20_14h58.01.875,game,2022.2.5,60.23943972490437,
,,,,,,,,44,0,44,0,,,,,,,,,,,,,,,4,2938.7042931999895,2938.7042931999895,2941.7034654999734,2942.7034849000047,None,2942.7034849000047,2942.7034849000047,1,355.8720999862999,space,0.3558720999862999,2943.1013322999934,2943.6051424999605,,,,,,,,,,,,,,,,,leonard,001,2023-12-20_14h58.01.875,game,2022.2.5,60.23943972490437,
,,,,,,,,,,,,,,,,,,,,,,,,,,,,,,,,,,,,,,,,2943.6051424999605,2943.6051424999605,space,4.86304129997734,,,,,,,,,,,,,leonard,001,2023-12-20_14h58.01.875,game,2022.2.5,60.23943972490437,
,,,,,,,,,,,,0,0,0,0,,,,,,,,,,,,,,,,,,,,,,,,,,,,,2948.50089679996,2948.50089679996,num_0,2.4312667999765836,,,,,,,,,leonard,001,2023-12-20_14h58.01.875,game,2022.2.5,60.23943972490437,
,,,,,,,,,,,,1,0,1,0,,,,,,,,,,,,,,,,,,,,,,,,,,,,,2951.3345165000064,2951.3345165000064,num_1,3.0373028999892995,,,,,,,,,leonard,001,2023-12-20_14h58.01.875,game,2022.2.5,60.23943972490437,
,,,,,,,,,,,,2,0,2,0,,,,,,,,,,,,,,,,,,,,,,,,,,,,,2954.7175986999646,2954.7175986999646,num_5,1.6707902000052854,,,,,,,,,leonard,001,2023-12-20_14h58.01.875,game,2022.2.5,60.23943972490437,
,,,,,,,,,,,,3,0,3,0,,,,,,,,,,,,,,,,,,,,,,,,,,,,,2956.7508452999755,2956.7508452999755,num_3,2.812862800026778,,,,,,,,,leonard,001,2023-12-20_14h58.01.875,game,2022.2.5,60.23943972490437,
,,,,,,,,,,,,4,0,4,0,,,,,,,,,,,,,,,,,,,,,,,,,,,,,2959.9173428000067,2959.9173428000067,num_2,1.7824058000114746,,,,,,,,,leonard,001,2023-12-20_14h58.01.875,game,2022.2.5,60.23943972490437,
,,,,,,,,,,,,5,0,5,0,,,,,,,,,,,,,,,,,,,,,,,,,,,,,2962.0838880999945,2962.0838880999945,num_6,3.0170705000055023,,,,,,,,,leonard,001,2023-12-20_14h58.01.875,game,2022.2.5,60.23943972490437,
,,,,,,,,,,,,6,0,6,0,,,,,,,,,,,,,,,,,,,,,,,,,,,,,2965.450360299961,2965.450360299961,num_8,5.209305200027302,,,,,,,,,leonard,001,2023-12-20_14h58.01.875,game,2022.2.5,60.23943972490437,
,,,,,,,,,,,,7,0,7,0,,,,,,,,,,,,,,,,,,,,,,,,,,,,,2971.0168371999753,2971.0168371999753,num_0,1.6029445000458509,,,,,,,,,leonard,001,2023-12-20_14h58.01.875,game,2022.2.5,60.23943972490437,
,,,,,,,,,,,,8,0,8,0,,,,,,,,,,,,,,,,,,,,,,,,,,,,,2973.033336399996,2973.033336399996,num_5,1.7947436000104062,,,,,,,,,leonard,001,2023-12-20_14h58.01.875,game,2022.2.5,60.23943972490437,
,,,,,,,,,,,,9,0,9,0,,,,,,,,,,,,,,,,,,,,,,,,,,,,,2975.199781399977,2975.199781399977,num_9,9.588805299950764,,,,,,,,,leonard,001,2023-12-20_14h58.01.875,game,2022.2.5,60.23943972490437,
,,,,,,,,,,,,10,0,10,0,,,,,,,,,,,,,,,,,,,,,,,,,,,,,2985.182611599972,2985.182611599972,num_0,1.645231300033629,,,,,,,,,leonard,001,2023-12-20_14h58.01.875,game,2022.2.5,60.23943972490437,
,,,,,,,,,,,,11,0,11,0,,,,,,,,,,,,,,,,,,,,,,,,,,,,,2987.2494431000086,2987.2494431000086,num_9,2.107161499967333,,,,,,,,,leonard,001,2023-12-20_14h58.01.875,game,2022.2.5,60.23943972490437,
,,,,,,,,,,,,12,0,12,0,,,,,,,,,,,,,,,,,,,,,,,,,,,,,2989.782451999956,2989.782451999956,num_1,1.5578627999639139,,,,,,,,,leonard,001,2023-12-20_14h58.01.875,game,2022.2.5,60.23943972490437,
,,,,,,,,,,,,13,0,13,0,,,,,,,,,,,,,,,,,,,,,,,,,,,,,2991.7322911999654,2991.7322911999654,num_9,2.847732199996244,,,,,,,,,leonard,001,2023-12-20_14h58.01.875,game,2022.2.5,60.23943972490437,
,,,,,,,,,,,,14,0,14,0,,,,,,,,,,,,,,,,,,,,,,,,,,,,,2994.999240699981,2994.999240699981,num_5,3.74094479996711,,,,,,,,,leonard,001,2023-12-20_14h58.01.875,game,2022.2.5,60.23943972490437,
,,,,,,,,,,,,15,0,15,0,,,,,,,,,,,,,,,,,,,,,,,,,,,,,2999.1571869999752,2999.1571869999752,num_3,2.9748632999835536,,,,,,,,,leonard,001,2023-12-20_14h58.01.875,game,2022.2.5,60.23943972490437,
,,,,,,,,,,,,16,0,16,0,,,,,,,,,,,,,,,,,,,,,,,,,,,,,3002.5316799999564,3002.5316799999564,num_1,4.729625599982683,,,,,,,,,leonard,001,2023-12-20_14h58.01.875,game,2022.2.5,60.23943972490437,
,,,,,,,,,,,,17,0,17,0,,,,,,,,,,,,,,,,,,,,,,,,,,,,,3007.681057199952,3007.681057199952,num_9,1.4672924000187777,,,,,,,,,leonard,001,2023-12-20_14h58.01.875,game,2022.2.5,60.23943972490437,
,,,,,,,,,,,,18,0,18,0,,,,,,,,,,,,,,,,,,,,,,,,,,,,,3009.5480722999782,3009.5480722999782,num_7,2.3598531000316143,,,,,,,,,leonard,001,2023-12-20_14h58.01.875,game,2022.2.5,60.23943972490437,
,,,,,,,,,,,,19,0,19,0,,,,,,,,,,,,,,,,,,,,,,,,,,,,,3012.314636599971,3012.314636599971,num_1,3.313321600027848,,,,,,,,,leonard,001,2023-12-20_14h58.01.875,game,2022.2.5,60.23943972490437,
,,,,,,,,,,,,20,0,20,0,,,,,,,,,,,,,,,,,,,,,,,,,,,,,3016.0309165999643,3016.0309165999643,num_5,10.454017800046131,,,,,,,,,leonard,001,2023-12-20_14h58.01.875,game,2022.2.5,60.23943972490437,
,,,,,,,,,,,,21,0,21,0,,,,,,,,,,,,,,,,,,,,,,,,,,,,,3026.8971929999534,3026.8971929999534,num_9,1.699638899997808,,,,,,,,,leonard,001,2023-12-20_14h58.01.875,game,2022.2.5,60.23943972490437,
,,,,,,,,,,,,22,0,22,0,,,,,,,,,,,,,,,,,,,,,,,,,,,,,3028.963579399977,3028.963579399977,num_8,2.1292400999809615,,,,,,,,,leonard,001,2023-12-20_14h58.01.875,game,2022.2.5,60.23943972490437,
,,,,,,,,,,,,23,0,23,0,,,,,,,,,,,,,,,,,,,,,,,,,,,,,3031.4634513999918,3031.4634513999918,num_9,6.9725668000173755,,,,,,,,,leonard,001,2023-12-20_14h58.01.875,game,2022.2.5,60.23943972490437,
,,,,,,,,,,,,24,0,24,0,,,,,,,,,,,,,,,,,,,,,,,,,,,,,3038.813446199987,3038.813446199987,num_8,3.559593699988909,,,,,,,,,leonard,001,2023-12-20_14h58.01.875,game,2022.2.5,60.23943972490437,
,,,,,,,,,,,,25,0,25,0,,,,,,,,,,,,,,,,,,,,,,,,,,,,,3042.7794814999797,3042.7794814999797,num_3,2.46537079999689,,,,,,,,,leonard,001,2023-12-20_14h58.01.875,game,2022.2.5,60.23943972490437,
,,,,,,,,,,,,26,0,26,0,,,,,,,,,,,,,,,,,,,,,,,,,,,,,3045.6288522999967,3045.6288522999967,num_0,2.2553123999969102,,,,,,,,,leonard,001,2023-12-20_14h58.01.875,game,2022.2.5,60.23943972490437,
,,,,,,,,,,,,27,0,27,0,,,,,,,,,,,,,,,,,,,,,,,,,,,,,3048.279391499993,3048.279391499993,num_7,5.246671199973207,,,,,,,,,leonard,001,2023-12-20_14h58.01.875,game,2022.2.5,60.23943972490437,
,,,,,,,,,,,,28,0,28,0,,,,,,,,,,,,,,,,,,,,,,,,,,,,,3053.895683599985,3053.895683599985,num_4,2.7804893999709748,,,,,,,,,leonard,001,2023-12-20_14h58.01.875,game,2022.2.5,60.23943972490437,
,,,,,,,,,,,,29,0,29,0,,,,,,,,,,,,,,,,,,,,,,,,,,,,,3057.0625677999924,3057.0625677999924,num_9,2.934903299959842,,,,,,,,,leonard,001,2023-12-20_14h58.01.875,game,2022.2.5,60.23943972490437,
,,,,,,,,,,,,30,0,30,0,,,,,,,,,,,,,,,,,,,,,,,,,,,,,3060.3620814000024,3060.3620814000024,num_1,4.411081599944737,,,,,,,,,leonard,001,2023-12-20_14h58.01.875,game,2022.2.5,60.23943972490437,
,,,,,,,,,,,,31,0,31,0,,,,,,,,,,,,,,,,,,,,,,,,,,,,,3065.1451180999866,3065.1451180999866,num_1,5.307792500010692,,,,,,,,,leonard,001,2023-12-20_14h58.01.875,game,2022.2.5,60.23943972490437,
,,,,,,,,,,,,32,0,32,0,,,,,,,,,,,,,,,,,,,,,,,,,,,,,3070.8779644999886,3070.8779644999886,num_1,5.502379000012297,,,,,,,,,leonard,001,2023-12-20_14h58.01.875,game,2022.2.5,60.23943972490437,
,,,,,,,,,,,,33,0,33,0,,,,,,,,,,,,,,,,,,,,,,,,,,,,,3076.7625199999893,3076.7625199999893,num_9,1.4506119000143372,,,,,,,,,leonard,001,2023-12-20_14h58.01.875,game,2022.2.5,60.23943972490437,
,,,,,,,,,,,,34,0,34,0,,,,,,,,,,,,,,,,,,,,,,,,,,,,,3078.577715099964,3078.577715099964,num_9,2.9070069000008516,,,,,,,,,leonard,001,2023-12-20_14h58.01.875,game,2022.2.5,60.23943972490437,
,,,,,,,,,,,,35,0,35,0,,,,,,,,,,,,,,,,,,,,,,,,,,,,,3081.860771699983,3081.860771699983,num_9,4.247523400001228,,,,,,,,,leonard,001,2023-12-20_14h58.01.875,game,2022.2.5,60.23943972490437,
,,,,,,,,,,,,36,0,36,0,,,,,,,,,,,,,,,,,,,,,,,,,,,,,3086.5271760000032,3086.5271760000032,num_3,5.293698899971787,,,,,,,,,leonard,001,2023-12-20_14h58.01.875,game,2022.2.5,60.23943972490437,
,,,,,,,,,,,,37,0,37,0,,,,,,,,,,,,,,,,,,,,,,,,,,,,,3092.2437593999784,3092.2437593999784,num_8,1.768746999965515,,,,,,,,,leonard,001,2023-12-20_14h58.01.875,game,2022.2.5,60.23943972490437,
,,,,,,,,,,,,38,0,38,0,,,,,,,,,,,,,,,,,,,,,,,,,,,,,3094.410406399984,3094.410406399984,num_9,1.778733400045894,,,,,,,,,leonard,001,2023-12-20_14h58.01.875,game,2022.2.5,60.23943972490437,
,,,,,,,,,,,,39,0,39,0,,,,,,,,,,,,,,,,,,,,,,,,,,,,,3096.5598637000076,3096.5598637000076,None,,,,,,,,,,leonard,001,2023-12-20_14h58.01.875,game,2022.2.5,60.23943972490437,
,,,,,,,,,,,,,,,,,,,,,,,,,,,,,,,,,,,,,,,,,,,,,,,,3098.494915999996,3098.494915999996,space,3.4168967000441626,,,,,leonard,001,2023-12-20_14h58.01.875,game,2022.2.5,60.23943972490437,
