trials.thisRepN,trials.thisTrialN,trials.thisN,trials.thisIndex,trials_3.thisRepN,trials_3.thisTrialN,trials_3.thisN,trials_3.thisIndex,trials_6.thisRepN,trials_6.thisTrialN,trials_6.thisN,trials_6.thisIndex,trials_5.thisRepN,trials_5.thisTrialN,trials_5.thisN,trials_5.thisIndex,trials_4.thisRepN,trials_4.thisTrialN,trials_4.thisN,trials_4.thisIndex,text_2.started,key_resp.started,key_resp.keys,key_resp.rt,text_4.started,text_4.stopped,InstructionsText.started,InstrucKey.started,InstrucKey.keys,InstrucKey.rt,ISI,ISI_text.started,dontrespond.started,dontrespond.stopped,ISI_text.stopped,dontrespond.keys,Targetstim.started,Response.started,Accuracy,RTms,Response.keys,Response.rt,Feedback_text.started,Feedback_text.stopped,text_6.started,key_resp_2.started,key_resp_2.keys,key_resp_2.rt,key_resp_4.started,text_7.started,key_resp_4.keys,key_resp_4.rt,text_13.started,key_resp_6.started,key_resp_6.keys,key_resp_6.rt,participant,session,date,expName,psychopyVersion,frameRate,
,,,,,,,,,,,,,,,,,,,,23.33209359999455,23.33209359999455,space,29.64366240000527,,,,,,,,,,,,,,,,,,,,,,,,,,,,,,,,,levi_afternoon_coffee,001,2023-12-15_14h13.59.081,game,2022.2.5,60.275059206818405,
,,,,,,,,,,,,,,,,,,,,,,,,52.999594299995806,83.01301229999808,83.01301229999808,83.01301229999808,space,19.24297550000483,,,,,,,,,,,,,,,,,,,,,,,,,,,levi_afternoon_coffee,001,2023-12-15_14h13.59.081,game,2022.2.5,60.275059206818405,
0,0,0,0,,,,,,,,,,,,,,,,,,,,,,,,,,,4,102.27833269999974,102.27833269999974,105.27816090000124,106.27789949999715,None,106.27789949999715,106.27789949999715,1,315.0992000082624,space,0.3150992000082624,106.62647319999814,107.13023650000105,,,,,,,,,,,,,levi_afternoon_coffee,001,2023-12-15_14h13.59.081,game,2022.2.5,60.275059206818405,
1,0,1,0,,,,,,,,,,,,,,,,,,,,,,,,,,,4,107.13023650000105,107.13023650000105,110.14470379999693,111.15881509999599,None,111.15881509999599,111.15881509999599,1,337.98620000015944,space,0.33798620000015944,111.52536099999998,112.03189749999729,,,,,,,,,,,,,levi_afternoon_coffee,001,2023-12-15_14h13.59.081,game,2022.2.5,60.275059206818405,
2,0,2,0,,,,,,,,,,,,,,,,,,,,,,,,,,,3,112.03189749999729,112.03189749999729,114.04454299999634,115.04488119999587,None,115.04488119999587,115.04488119999587,1,435.32690000574803,space,0.43532690000574803,115.51175759999751,116.01285829999688,,,,,,,,,,,,,levi_afternoon_coffee,001,2023-12-15_14h13.59.081,game,2022.2.5,60.275059206818405,
3,0,3,0,,,,,,,,,,,,,,,,,,,,,,,,,,,1,116.01285829999688,116.01285829999688,116.01285829999688,117.0273348999981,None,117.0273348999981,117.0273348999981,1,404.75790000346024,space,0.40475790000346024,117.47575819999474,117.9791922000004,,,,,,,,,,,,,levi_afternoon_coffee,001,2023-12-15_14h13.59.081,game,2022.2.5,60.275059206818405,
4,0,4,0,,,,,,,,,,,,,,,,,,,,,,,,,,,4,117.9791922000004,117.9791922000004,120.99401489999582,121.99383129999478,None,121.99383129999478,121.99383129999478,1,318.2861000095727,space,0.3182861000095727,122.33021019999433,122.84564259999752,,,,,,,,,,,,,levi_afternoon_coffee,001,2023-12-15_14h13.59.081,game,2022.2.5,60.275059206818405,
5,0,5,0,,,,,,,,,,,,,,,,,,,,,,,,,,,2,122.84564259999752,122.84564259999752,123.86308559999452,124.85981919999904,None,124.85981919999904,124.85981919999904,1,389.7262000027695,space,0.3897262000027695,125.27710490000027,125.77710989999468,,,,,,,,,,,,,levi_afternoon_coffee,001,2023-12-15_14h13.59.081,game,2022.2.5,60.275059206818405,
6,0,6,0,,,,,,,,,,,,,,,,,,,,,,,,,,,3,125.77710989999468,125.77710989999468,127.77712339999562,128.77719109999452,None,128.77719109999452,128.77719109999452,1,302.7658000064548,space,0.3027658000064548,129.12554789999558,129.62905269999465,,,,,,,,,,,,,levi_afternoon_coffee,001,2023-12-15_14h13.59.081,game,2022.2.5,60.275059206818405,
7,0,7,0,,,,,,,,,,,,,,,,,,,,,,,,,,,2,129.62905269999465,129.62905269999465,130.62829200000124,131.62761350000073,None,131.62761350000073,131.62761350000073,1,348.4307000035187,space,0.3484307000035187,132.0088351999948,132.50946829999884,,,,,,,,,,,,,levi_afternoon_coffee,001,2023-12-15_14h13.59.081,game,2022.2.5,60.275059206818405,
8,0,8,0,,,,,,,,,,,,,,,,,,,,,,,,,,,1,132.50946829999884,132.50946829999884,132.50946829999884,133.5098188999982,None,133.5098188999982,133.5098188999982,1,330.1186000026064,space,0.3301186000026064,133.87532549999742,134.377607800001,,,,,,,,,,,,,levi_afternoon_coffee,001,2023-12-15_14h13.59.081,game,2022.2.5,60.275059206818405,
9,0,9,0,,,,,,,,,,,,,,,,,,,,,,,,,,,2,134.377607800001,134.377607800001,135.37753659999726,136.39055669999652,None,136.39055669999652,136.39055669999652,1,313.8587000066764,space,0.31385870000667637,136.726290599996,137.22860909999872,,,,,,,,,,,,,levi_afternoon_coffee,001,2023-12-15_14h13.59.081,game,2022.2.5,60.275059206818405,
10,0,10,0,,,,,,,,,,,,,,,,,,,,,,,,,,,2,137.22860909999872,137.22860909999872,138.24242329999834,139.2434942999971,None,139.2434942999971,139.2434942999971,1,308.4670000025653,space,0.30846700000256533,139.59129559999565,140.09814740000002,,,,,,,,,,,,,levi_afternoon_coffee,001,2023-12-15_14h13.59.081,game,2022.2.5,60.275059206818405,
11,0,11,0,,,,,,,,,,,,,,,,,,,,,,,,,,,3,140.09814740000002,140.09814740000002,142.10991349999676,143.1087069999994,None,143.1087069999994,143.1087069999994,1,332.0475000073202,space,0.3320475000073202,143.4592909999992,143.95978659999673,,,,,,,,,,,,,levi_afternoon_coffee,001,2023-12-15_14h13.59.081,game,2022.2.5,60.275059206818405,
12,0,12,0,,,,,,,,,,,,,,,,,,,,,,,,,,,3,143.95978659999673,143.95978659999673,145.95931009999913,146.9590903999997,None,146.9590903999997,146.9590903999997,1,296.8756000045687,space,0.2968756000045687,147.27649340000062,147.77877279999666,,,,,,,,,,,,,levi_afternoon_coffee,001,2023-12-15_14h13.59.081,game,2022.2.5,60.275059206818405,
13,0,13,0,,,,,,,,,,,,,,,,,,,,,,,,,,,1,147.77877279999666,147.77877279999666,147.77877279999666,148.79336169999442,None,148.79336169999442,148.79336169999442,1,519.3080000026384,space,0.5193080000026384,149.34171770000103,149.8417679999984,,,,,,,,,,,,,levi_afternoon_coffee,001,2023-12-15_14h13.59.081,game,2022.2.5,60.275059206818405,
14,0,14,0,,,,,,,,,,,,,,,,,,,,,,,,,,,4,149.8417679999984,149.8417679999984,152.84145949999947,153.842032499997,None,153.842032499997,153.842032499997,1,303.65700000402285,space,0.30365700000402285,154.1921413999953,154.69465019999916,,,,,,,,,,,,,levi_afternoon_coffee,001,2023-12-15_14h13.59.081,game,2022.2.5,60.275059206818405,
15,0,15,0,,,,,,,,,,,,,,,,,,,,,,,,,,,4,154.69465019999916,154.69465019999916,157.708627299995,158.70944549999695,None,158.70944549999695,158.70944549999695,1,314.82859999960056,space,0.31482859999960056,159.05785569999716,159.57325449999917,,,,,,,,,,,,,levi_afternoon_coffee,001,2023-12-15_14h13.59.081,game,2022.2.5,60.275059206818405,
16,0,16,0,,,,,,,,,,,,,,,,,,,,,,,,,,,3,159.57325449999917,159.57325449999917,161.57566289999522,162.57547519999935,None,162.57547519999935,162.57547519999935,1,336.6180000011809,space,0.3366180000011809,162.9402071000004,163.44144750000123,,,,,,,,,,,,,levi_afternoon_coffee,001,2023-12-15_14h13.59.081,game,2022.2.5,60.275059206818405,
17,0,17,0,,,,,,,,,,,,,,,,,,,,,,,,,,,2,163.44144750000123,163.44144750000123,164.44294429999718,165.44133879999572,None,165.44133879999572,165.44133879999572,1,487.76240000734106,space,0.48776240000734106,165.97328719999496,166.4745427999951,,,,,,,,,,,,,levi_afternoon_coffee,001,2023-12-15_14h13.59.081,game,2022.2.5,60.275059206818405,
18,0,18,0,,,,,,,,,,,,,,,,,,,,,,,,,,,1,166.4745427999951,166.4745427999951,166.4745427999951,167.47409359999438,None,167.47409359999438,167.47409359999438,1,382.4946000095224,space,0.3824946000095224,167.89006009999866,168.3911877999999,,,,,,,,,,,,,levi_afternoon_coffee,001,2023-12-15_14h13.59.081,game,2022.2.5,60.275059206818405,
19,0,19,0,,,,,,,,,,,,,,,,,,,,,,,,,,,4,168.3911877999999,168.3911877999999,171.39047449999634,172.39104949999455,None,172.39104949999455,172.39104949999455,1,345.9084000060102,space,0.3459084000060102,172.7721359999996,173.27504259999841,,,,,,,,,,,,,levi_afternoon_coffee,001,2023-12-15_14h13.59.081,game,2022.2.5,60.275059206818405,
20,0,20,0,,,,,,,,,,,,,,,,,,,,,,,,,,,4,173.27504259999841,173.27504259999841,176.27367859999504,177.2734625000012,None,177.2734625000012,177.2734625000012,1,358.53010000573704,space,0.35853010000573704,177.65682569999626,178.1761955999973,,,,,,,,,,,,,levi_afternoon_coffee,001,2023-12-15_14h13.59.081,game,2022.2.5,60.275059206818405,
21,0,21,0,,,,,,,,,,,,,,,,,,,,,,,,,,,1,178.1761955999973,178.1761955999973,178.1761955999973,179.19039929999417,None,179.19039929999417,179.19039929999417,1,386.4547000048333,space,0.3864547000048333,179.62251639999886,180.12522660000104,,,,,,,,,,,,,levi_afternoon_coffee,001,2023-12-15_14h13.59.081,game,2022.2.5,60.275059206818405,
22,0,22,0,,,,,,,,,,,,,,,,,,,,,,,,,,,2,180.12522660000104,180.12522660000104,181.12571380000009,182.14228069999808,None,182.14228069999808,182.14228069999808,1,434.6482000037213,space,0.4346482000037213,182.6063198999982,183.10870299999806,,,,,,,,,,,,,levi_afternoon_coffee,001,2023-12-15_14h13.59.081,game,2022.2.5,60.275059206818405,
23,0,23,0,,,,,,,,,,,,,,,,,,,,,,,,,,,4,183.10870299999806,183.10870299999806,186.12402909999946,187.12402250000014,None,187.12402250000014,187.12402250000014,1,342.1848000070895,space,0.3421848000070895,187.50432010000077,188.0083611000009,,,,,,,,,,,,,levi_afternoon_coffee,001,2023-12-15_14h13.59.081,game,2022.2.5,60.275059206818405,
24,0,24,0,,,,,,,,,,,,,,,,,,,,,,,,,,,3,188.0083611000009,188.0083611000009,190.02351729999646,191.0234230999995,None,191.0234230999995,191.0234230999995,1,346.42600000370294,space,0.34642600000370294,191.40465929999482,191.9094174999991,,,,,,,,,,,,,levi_afternoon_coffee,001,2023-12-15_14h13.59.081,game,2022.2.5,60.275059206818405,
25,0,25,0,,,,,,,,,,,,,,,,,,,,,,,,,,,4,191.9094174999991,191.9094174999991,194.92341029999807,195.92306290000124,None,195.92306290000124,195.92306290000124,1,349.7388000105275,space,0.3497388000105275,196.2901079000003,196.7903029999943,,,,,,,,,,,,,levi_afternoon_coffee,001,2023-12-15_14h13.59.081,game,2022.2.5,60.275059206818405,
26,0,26,0,,,,,,,,,,,,,,,,,,,,,,,,,,,3,196.7903029999943,196.7903029999943,198.80641259999538,199.7906051999962,None,199.7906051999962,199.7906051999962,1,329.9745000040275,space,0.3299745000040275,200.15541929999745,200.65658869999606,,,,,,,,,,,,,levi_afternoon_coffee,001,2023-12-15_14h13.59.081,game,2022.2.5,60.275059206818405,
27,0,27,0,,,,,,,,,,,,,,,,,,,,,,,,,,,1,200.65658869999606,200.65658869999606,200.65658869999606,201.65866480000113,None,201.65866480000113,201.65866480000113,1,453.9214000033098,space,0.4539214000033098,202.15679190000083,202.65682259999448,,,,,,,,,,,,,levi_afternoon_coffee,001,2023-12-15_14h13.59.081,game,2022.2.5,60.275059206818405,
28,0,28,0,,,,,,,,,,,,,,,,,,,,,,,,,,,4,202.65682259999448,202.65682259999448,205.65683499999432,206.65537349999795,None,206.65537349999795,206.65537349999795,1,345.0365000026068,space,0.34503650000260677,207.02502660000027,207.5394182999953,,,,,,,,,,,,,levi_afternoon_coffee,001,2023-12-15_14h13.59.081,game,2022.2.5,60.275059206818405,
29,0,29,0,,,,,,,,,,,,,,,,,,,,,,,,,,,3,207.5394182999953,207.5394182999953,209.54088529999717,210.54113149999466,None,210.54113149999466,210.54113149999466,1,427.1603000088362,space,0.4271603000088362,211.0043966000012,211.50920760000008,,,,,,,,,,,,,levi_afternoon_coffee,001,2023-12-15_14h13.59.081,game,2022.2.5,60.275059206818405,
30,0,30,0,,,,,,,,,,,,,,,,,,,,,,,,,,,3,211.50920760000008,211.50920760000008,213.52158299999428,214.52167660000123,None,214.52167660000123,214.52167660000123,1,335.237600003893,space,0.335237600003893,214.87497269999585,215.39145669999562,,,,,,,,,,,,,levi_afternoon_coffee,001,2023-12-15_14h13.59.081,game,2022.2.5,60.275059206818405,
31,0,31,0,,,,,,,,,,,,,,,,,,,,,,,,,,,3,215.39145669999562,215.39145669999562,217.40584909999598,218.40510189999623,None,218.40510189999623,218.40510189999623,1,315.459200006444,space,0.315459200006444,218.753461100001,219.25609599999734,,,,,,,,,,,,,levi_afternoon_coffee,001,2023-12-15_14h13.59.081,game,2022.2.5,60.275059206818405,
32,0,32,0,,,,,,,,,,,,,,,,,,,,,,,,,,,2,219.25609599999734,219.25609599999734,220.25825059999625,221.25746019999497,None,221.25746019999497,221.25746019999497,1,367.68400000437396,space,0.36768400000437396,221.65282640000078,222.15995219999604,,,,,,,,,,,,,levi_afternoon_coffee,001,2023-12-15_14h13.59.081,game,2022.2.5,60.275059206818405,
33,0,33,0,,,,,,,,,,,,,,,,,,,,,,,,,,,4,222.15995219999604,222.15995219999604,225.17653979999886,226.17628569999943,None,226.17628569999943,226.17628569999943,1,304.77560000144877,space,0.30477560000144877,226.5197870999982,227.02376839999488,,,,,,,,,,,,,levi_afternoon_coffee,001,2023-12-15_14h13.59.081,game,2022.2.5,60.275059206818405,
34,0,34,0,,,,,,,,,,,,,,,,,,,,,,,,,,,2,227.02376839999488,227.02376839999488,228.03943839999556,229.0385129999995,None,229.0385129999995,229.0385129999995,1,386.28700000117533,space,0.38628700000117533,229.4529354999977,229.95626289999927,,,,,,,,,,,,,levi_afternoon_coffee,001,2023-12-15_14h13.59.081,game,2022.2.5,60.275059206818405,
35,0,35,0,,,,,,,,,,,,,,,,,,,,,,,,,,,2,229.95626289999927,229.95626289999927,230.9566930000001,231.9858183999968,None,231.9858183999968,231.9858183999968,1,294.6600000068429,space,0.2946600000068429,232.304701699999,232.8047976999951,,,,,,,,,,,,,levi_afternoon_coffee,001,2023-12-15_14h13.59.081,game,2022.2.5,60.275059206818405,
36,0,36,0,,,,,,,,,,,,,,,,,,,,,,,,,,,2,232.8047976999951,232.8047976999951,233.8046280999988,234.80541119999543,None,234.80541119999543,234.80541119999543,1,307.6398000048357,space,0.3076398000048357,235.1700720000008,235.6712133999972,,,,,,,,,,,,,levi_afternoon_coffee,001,2023-12-15_14h13.59.081,game,2022.2.5,60.275059206818405,
37,0,37,0,,,,,,,,,,,,,,,,,,,,,,,,,,,2,235.6712133999972,235.6712133999972,236.67165849999583,237.67100109999592,None,237.67100109999592,237.67100109999592,1,321.9385999982478,space,0.3219385999982478,238.036070999995,238.537631399995,,,,,,,,,,,,,levi_afternoon_coffee,001,2023-12-15_14h13.59.081,game,2022.2.5,60.275059206818405,
38,0,38,0,,,,,,,,,,,,,,,,,,,,,,,,,,,1,238.537631399995,238.537631399995,238.537631399995,239.53944489999412,None,239.53944489999412,239.53944489999412,1,349.1317000007257,space,0.3491317000007257,239.91898409999703,240.42251530000067,,,,,,,,,,,,,levi_afternoon_coffee,001,2023-12-15_14h13.59.081,game,2022.2.5,60.275059206818405,
39,0,39,0,,,,,,,,,,,,,,,,,,,,,,,,,,,4,240.42251530000067,240.42251530000067,243.42102349999914,244.4515922999999,None,244.4515922999999,244.4515922999999,1,325.7856999989599,space,0.3257856999989599,244.80385679999745,245.30736590000015,,,,,,,,,,,,,levi_afternoon_coffee,001,2023-12-15_14h13.59.081,game,2022.2.5,60.275059206818405,
40,0,40,0,,,,,,,,,,,,,,,,,,,,,,,,,,,3,245.30736590000015,245.30736590000015,247.31997509999928,248.32035899999755,None,248.32035899999755,248.32035899999755,1,329.4388000067556,space,0.3294388000067556,248.67064519999985,249.17592399999558,,,,,,,,,,,,,levi_afternoon_coffee,001,2023-12-15_14h13.59.081,game,2022.2.5,60.275059206818405,
41,0,41,0,,,,,,,,,,,,,,,,,,,,,,,,,,,3,249.17592399999558,249.17592399999558,251.18625679999968,252.18619559999934,None,252.18619559999934,252.18619559999934,1,302.60130000533536,space,0.30260130000533536,252.50372760000027,253.00657879999926,,,,,,,,,,,,,levi_afternoon_coffee,001,2023-12-15_14h13.59.081,game,2022.2.5,60.275059206818405,
,,,,,,,,,,,,,,,,,,,,,,,,,,,,,,,,,,,,,,,,,,,,253.00657879999926,253.00657879999926,space,2.5462369000088074,,,,,,,,,levi_afternoon_coffee,001,2023-12-15_14h13.59.081,game,2022.2.5,60.275059206818405,
,,,,0,0,0,0,,,,,,,,,,,,,,,,,,,,,,,,,,,,,,,,,,,,,,,,,255.58399680000002,255.58399680000002,num_5,2.369200400004047,,,,,levi_afternoon_coffee,001,2023-12-15_14h13.59.081,game,2022.2.5,60.275059206818405,
,,,,1,0,1,0,,,,,,,,,,,,,,,,,,,,,,,,,,,,,,,,,,,,,,,,,258.4008468999964,258.4008468999964,num_7,2.432311100004881,,,,,levi_afternoon_coffee,001,2023-12-15_14h13.59.081,game,2022.2.5,60.275059206818405,
,,,,2,0,2,0,,,,,,,,,,,,,,,,,,,,,,,,,,,,,,,,,,,,,,,,,261.2512910000005,261.2512910000005,num_4,3.086114700003236,,,,,levi_afternoon_coffee,001,2023-12-15_14h13.59.081,game,2022.2.5,60.275059206818405,
,,,,3,0,3,0,,,,,,,,,,,,,,,,,,,,,,,,,,,,,,,,,,,,,,,,,264.7343245999946,264.7343245999946,num_7,3.458821500003978,,,,,levi_afternoon_coffee,001,2023-12-15_14h13.59.081,game,2022.2.5,60.275059206818405,
,,,,4,0,4,0,,,,,,,,,,,,,,,,,,,,,,,,,,,,,,,,,,,,,,,,,268.601279399998,268.601279399998,num_3,5.727713800006313,,,,,levi_afternoon_coffee,001,2023-12-15_14h13.59.081,game,2022.2.5,60.275059206818405,
,,,,5,0,5,0,,,,,,,,,,,,,,,,,,,,,,,,,,,,,,,,,,,,,,,,,274.7340907999969,274.7340907999969,num_2,3.299596900011238,,,,,levi_afternoon_coffee,001,2023-12-15_14h13.59.081,game,2022.2.5,60.275059206818405,
,,,,6,0,6,0,,,,,,,,,,,,,,,,,,,,,,,,,,,,,,,,,,,,,,,,,278.45007479999913,278.45007479999913,num_3,3.8156720000042696,,,,,levi_afternoon_coffee,001,2023-12-15_14h13.59.081,game,2022.2.5,60.275059206818405,
,,,,7,0,7,0,,,,,,,,,,,,,,,,,,,,,,,,,,,,,,,,,,,,,,,,,282.7002719999946,282.7002719999946,num_3,3.5326874000093085,,,,,levi_afternoon_coffee,001,2023-12-15_14h13.59.081,game,2022.2.5,60.275059206818405,
,,,,8,0,8,0,,,,,,,,,,,,,,,,,,,,,,,,,,,,,,,,,,,,,,,,,286.66571579999436,286.66571579999436,num_4,4.9203737000061665,,,,,levi_afternoon_coffee,001,2023-12-15_14h13.59.081,game,2022.2.5,60.275059206818405,
,,,,9,0,9,0,,,,,,,,,,,,,,,,,,,,,,,,,,,,,,,,,,,,,,,,,291.96638489999896,291.96638489999896,num_4,1.6026469999997062,,,,,levi_afternoon_coffee,001,2023-12-15_14h13.59.081,game,2022.2.5,60.275059206818405,
,,,,10,0,10,0,,,,,,,,,,,,,,,,,,,,,,,,,,,,,,,,,,,,,,,,,294.0000099999961,294.0000099999961,num_3,2.833038300006592,,,,,levi_afternoon_coffee,001,2023-12-15_14h13.59.081,game,2022.2.5,60.275059206818405,
,,,,11,0,11,0,,,,,,,,,,,,,,,,,,,,,,,,,,,,,,,,,,,,,,,,,297.24859149999975,297.24859149999975,num_5,9.22503080000024,,,,,levi_afternoon_coffee,001,2023-12-15_14h13.59.081,game,2022.2.5,60.275059206818405,
,,,,12,0,12,0,,,,,,,,,,,,,,,,,,,,,,,,,,,,,,,,,,,,,,,,,306.8658884999968,306.8658884999968,num_9,5.103339000001142,,,,,levi_afternoon_coffee,001,2023-12-15_14h13.59.081,game,2022.2.5,60.275059206818405,
,,,,13,0,13,0,,,,,,,,,,,,,,,,,,,,,,,,,,,,,,,,,,,,,,,,,312.399980999995,312.399980999995,num_8,5.0588961000030395,,,,,levi_afternoon_coffee,001,2023-12-15_14h13.59.081,game,2022.2.5,60.275059206818405,
,,,,14,0,14,0,,,,,,,,,,,,,,,,,,,,,,,,,,,,,,,,,,,,,,,,,317.8814461000002,317.8814461000002,num_7,5.992752100006328,,,,,levi_afternoon_coffee,001,2023-12-15_14h13.59.081,game,2022.2.5,60.275059206818405,
,,,,15,0,15,0,,,,,,,,,,,,,,,,,,,,,,,,,,,,,,,,,,,,,,,,,324.28079499999876,324.28079499999876,num_7,5.440864000003785,,,,,levi_afternoon_coffee,001,2023-12-15_14h13.59.081,game,2022.2.5,60.275059206818405,
,,,,16,0,16,0,,,,,,,,,,,,,,,,,,,,,,,,,,,,,,,,,,,,,,,,,330.13110259999667,330.13110259999667,num_4,4.078671300005226,,,,,levi_afternoon_coffee,001,2023-12-15_14h13.59.081,game,2022.2.5,60.275059206818405,
,,,,17,0,17,0,,,,,,,,,,,,,,,,,,,,,,,,,,,,,,,,,,,,,,,,,334.59700370000064,334.59700370000064,num_5,5.508631800010335,,,,,levi_afternoon_coffee,001,2023-12-15_14h13.59.081,game,2022.2.5,60.275059206818405,
,,,,18,0,18,0,,,,,,,,,,,,,,,,,,,,,,,,,,,,,,,,,,,,,,,,,340.5136654999951,340.5136654999951,num_2,3.623698900002637,,,,,levi_afternoon_coffee,001,2023-12-15_14h13.59.081,game,2022.2.5,60.275059206818405,
,,,,19,0,19,0,,,,,,,,,,,,,,,,,,,,,,,,,,,,,,,,,,,,,,,,,344.5632451999991,344.5632451999991,num_8,2.6315159000077983,,,,,levi_afternoon_coffee,001,2023-12-15_14h13.59.081,game,2022.2.5,60.275059206818405,
,,,,20,0,20,0,,,,,,,,,,,,,,,,,,,,,,,,,,,,,,,,,,,,,,,,,347.5964682999984,347.5964682999984,num_8,4.852663400000893,,,,,levi_afternoon_coffee,001,2023-12-15_14h13.59.081,game,2022.2.5,60.275059206818405,
,,,,21,0,21,0,,,,,,,,,,,,,,,,,,,,,,,,,,,,,,,,,,,,,,,,,352.829751199999,352.829751199999,num_3,7.643752800002403,,,,,levi_afternoon_coffee,001,2023-12-15_14h13.59.081,game,2022.2.5,60.275059206818405,
,,,,22,0,22,0,,,,,,,,,,,,,,,,,,,,,,,,,,,,,,,,,,,,,,,,,360.9306714999984,360.9306714999984,num_9,6.7432994000046165,,,,,levi_afternoon_coffee,001,2023-12-15_14h13.59.081,game,2022.2.5,60.275059206818405,
,,,,23,0,23,0,,,,,,,,,,,,,,,,,,,,,,,,,,,,,,,,,,,,,,,,,368.09550709999894,368.09550709999894,num_8,1.5304877000016859,,,,,levi_afternoon_coffee,001,2023-12-15_14h13.59.081,game,2022.2.5,60.275059206818405,
,,,,24,0,24,0,,,,,,,,,,,,,,,,,,,,,,,,,,,,,,,,,,,,,,,,,370.02882219999447,370.02882219999447,num_5,1.5489188000065042,,,,,levi_afternoon_coffee,001,2023-12-15_14h13.59.081,game,2022.2.5,60.275059206818405,
,,,,25,0,25,0,,,,,,,,,,,,,,,,,,,,,,,,,,,,,,,,,,,,,,,,,371.9785647999961,371.9785647999961,num_1,4.135221600008663,,,,,levi_afternoon_coffee,001,2023-12-15_14h13.59.081,game,2022.2.5,60.275059206818405,
,,,,26,0,26,0,,,,,,,,,,,,,,,,,,,,,,,,,,,,,,,,,,,,,,,,,376.49672830000054,376.49672830000054,num_5,2.6012088999996195,,,,,levi_afternoon_coffee,001,2023-12-15_14h13.59.081,game,2022.2.5,60.275059206818405,
,,,,27,0,27,0,,,,,,,,,,,,,,,,,,,,,,,,,,,,,,,,,,,,,,,,,379.4948026999991,379.4948026999991,num_5,3.0749325000069803,,,,,levi_afternoon_coffee,001,2023-12-15_14h13.59.081,game,2022.2.5,60.275059206818405,
,,,,28,0,28,0,,,,,,,,,,,,,,,,,,,,,,,,,,,,,,,,,,,,,,,,,382.9779243000012,382.9779243000012,num_6,2.976831400002993,,,,,levi_afternoon_coffee,001,2023-12-15_14h13.59.081,game,2022.2.5,60.275059206818405,
,,,,29,0,29,0,,,,,,,,,,,,,,,,,,,,,,,,,,,,,,,,,,,,,,,,,386.36023909999494,386.36023909999494,num_8,4.60168700000213,,,,,levi_afternoon_coffee,001,2023-12-15_14h13.59.081,game,2022.2.5,60.275059206818405,
,,,,30,0,30,0,,,,,,,,,,,,,,,,,,,,,,,,,,,,,,,,,,,,,,,,,391.37680179999734,391.37680179999734,num_5,2.6091721999982838,,,,,levi_afternoon_coffee,001,2023-12-15_14h13.59.081,game,2022.2.5,60.275059206818405,
,,,,31,0,31,0,,,,,,,,,,,,,,,,,,,,,,,,,,,,,,,,,,,,,,,,,394.3770144000009,394.3770144000009,num_1,2.0335451000064495,,,,,levi_afternoon_coffee,001,2023-12-15_14h13.59.081,game,2022.2.5,60.275059206818405,
,,,,32,0,32,0,,,,,,,,,,,,,,,,,,,,,,,,,,,,,,,,,,,,,,,,,396.8105332999985,396.8105332999985,num_7,5.583059200005664,,,,,levi_afternoon_coffee,001,2023-12-15_14h13.59.081,game,2022.2.5,60.275059206818405,
,,,,33,0,33,0,,,,,,,,,,,,,,,,,,,,,,,,,,,,,,,,,,,,,,,,,402.7935845999964,402.7935845999964,num_3,2.4727655000024242,,,,,levi_afternoon_coffee,001,2023-12-15_14h13.59.081,game,2022.2.5,60.275059206818405,
,,,,34,0,34,0,,,,,,,,,,,,,,,,,,,,,,,,,,,,,,,,,,,,,,,,,1442.4071738999992,1442.4071738999992,None,,,,,,levi_afternoon_coffee,001,2023-12-15_14h13.59.081,game,2022.2.5,60.275059206818405,
,,,,,,,,,,,,,,,,,,,,,,,,,,,,,,,,,,,,,,,,,,,,,,,,,,,,1442.4071738999992,1442.4071738999992,space,146.2028452000086,levi_afternoon_coffee,001,2023-12-15_14h13.59.081,game,2022.2.5,60.275059206818405,
,,,,,,,,,,,,,,,,,,,,,,,,,,1588.631631999997,1588.631631999997,space,2.049679300005664,,,,,,,,,,,,,,,,,,,,,,,,,,,levi_afternoon_coffee,001,2023-12-15_14h13.59.081,game,2022.2.5,60.275059206818405,
,,,,,,,,0,0,0,0,,,,,,,,,,,,,,,,,,,4,1590.7004017,1590.7004017,1593.7141073999956,1594.7135981999963,None,1594.7135981999963,1594.7135981999963,1,407.5433000107296,space,0.4075433000107296,1595.146829899997,1595.662655799999,,,,,,,,,,,,,levi_afternoon_coffee,001,2023-12-15_14h13.59.081,game,2022.2.5,60.275059206818405,
,,,,,,,,1,0,1,0,,,,,,,,,,,,,,,,,,,4,1595.662655799999,1595.662655799999,1598.6650337999963,1599.6661183999968,None,1599.6661183999968,1599.6661183999968,1,382.946500008984,space,0.382946500008984,1600.0794057999956,1600.5960492000013,,,,,,,,,,,,,levi_afternoon_coffee,001,2023-12-15_14h13.59.081,game,2022.2.5,60.275059206818405,
,,,,,,,,2,0,2,0,,,,,,,,,,,,,,,,,,,3,1600.5960492000013,1600.5960492000013,1602.599387999995,1603.6125788999998,None,1603.6125788999998,1603.6125788999998,1,372.51470000774134,space,0.37251470000774134,1604.028721099996,1604.5318880999985,,,,,,,,,,,,,levi_afternoon_coffee,001,2023-12-15_14h13.59.081,game,2022.2.5,60.275059206818405,
,,,,,,,,3,0,3,0,,,,,,,,,,,,,,,,,,,3,1604.5318880999985,1604.5318880999985,1606.5492006999993,1607.5443270999967,None,1607.5443270999967,1607.5443270999967,1,313.93580000440124,space,0.31393580000440124,1607.8798115999962,1608.3953276999964,,,,,,,,,,,,,levi_afternoon_coffee,001,2023-12-15_14h13.59.081,game,2022.2.5,60.275059206818405,
,,,,,,,,4,0,4,0,,,,,,,,,,,,,,,,,,,1,1608.3953276999964,1608.3953276999964,1608.3953276999964,1609.4688893999992,None,1609.4688893999992,1609.4688893999992,1,388.33370000793366,space,0.38833370000793366,1609.897826100001,1610.3965334999957,,,,,,,,,,,,,levi_afternoon_coffee,001,2023-12-15_14h13.59.081,game,2022.2.5,60.275059206818405,
,,,,,,,,5,0,5,0,,,,,,,,,,,,,,,,,,,1,1610.3965334999957,1610.3965334999957,1610.3965334999957,1611.396149799999,None,1611.396149799999,1611.396149799999,1,341.4122000031057,space,0.3414122000031057,1611.778947699997,1612.3341325000001,,,,,,,,,,,,,levi_afternoon_coffee,001,2023-12-15_14h13.59.081,game,2022.2.5,60.275059206818405,
,,,,,,,,6,0,6,0,,,,,,,,,,,,,,,,,,,1,1612.3341325000001,1612.3341325000001,1612.3341325000001,1613.3623082999984,None,1613.3623082999984,1613.3623082999984,1,295.1126000043587,space,0.2951126000043587,1613.6954176,1614.2328656999962,,,,,,,,,,,,,levi_afternoon_coffee,001,2023-12-15_14h13.59.081,game,2022.2.5,60.275059206818405,
,,,,,,,,7,0,7,0,,,,,,,,,,,,,,,,,,,3,1614.2328656999962,1614.2328656999962,1616.2463838999975,1617.2462393999958,None,1617.2462393999958,1617.2462393999958,1,314.91850000747945,space,0.31491850000747945,1617.6112197999973,1618.115090899999,,,,,,,,,,,,,levi_afternoon_coffee,001,2023-12-15_14h13.59.081,game,2022.2.5,60.275059206818405,
,,,,,,,,8,0,8,0,,,,,,,,,,,,,,,,,,,1,1618.115090899999,1618.115090899999,1618.115090899999,1619.144302599998,None,1619.144302599998,1619.144302599998,1,360.97690000315197,space,0.36097690000315197,1619.5447740999953,1620.0465078999987,,,,,,,,,,,,,levi_afternoon_coffee,001,2023-12-15_14h13.59.081,game,2022.2.5,60.275059206818405,
,,,,,,,,9,0,9,0,,,,,,,,,,,,,,,,,,,1,1620.0465078999987,1620.0465078999987,1620.0465078999987,1621.0632779000007,None,1621.0632779000007,1621.0632779000007,1,306.66060000658035,space,0.30666060000658035,1621.4105180999977,1621.9124031999963,,,,,,,,,,,,,levi_afternoon_coffee,001,2023-12-15_14h13.59.081,game,2022.2.5,60.275059206818405,
,,,,,,,,10,0,10,0,,,,,,,,,,,,,,,,,,,2,1621.9124031999963,1621.9124031999963,1622.9328513,1623.9134754999977,None,1623.9134754999977,1623.9134754999977,1,328.185400008806,space,0.328185400008806,1624.2814206999974,1624.796956099999,,,,,,,,,,,,,levi_afternoon_coffee,001,2023-12-15_14h13.59.081,game,2022.2.5,60.275059206818405,
,,,,,,,,11,0,11,0,,,,,,,,,,,,,,,,,,,3,1624.796956099999,1624.796956099999,1626.8128785000008,1627.7949650999944,None,1627.7949650999944,1627.7949650999944,1,326.26449999952456,space,0.32626449999952456,1628.177781899998,1628.679658299996,,,,,,,,,,,,,levi_afternoon_coffee,001,2023-12-15_14h13.59.081,game,2022.2.5,60.275059206818405,
,,,,,,,,12,0,12,0,,,,,,,,,,,,,,,,,,,2,1628.679658299996,1628.679658299996,1629.679810099995,1630.680266999996,None,1630.680266999996,1630.680266999996,1,304.98240000451915,space,0.30498240000451915,1631.0272392999977,1631.5303095999989,,,,,,,,,,,,,levi_afternoon_coffee,001,2023-12-15_14h13.59.081,game,2022.2.5,60.275059206818405,
,,,,,,,,13,0,13,0,,,,,,,,,,,,,,,,,,,2,1631.5303095999989,1631.5303095999989,1632.5296744999941,1633.528922999998,None,1633.528922999998,1633.528922999998,1,313.105600005656,space,0.313105600005656,1633.8768906999976,1634.3940359999979,,,,,,,,,,,,,levi_afternoon_coffee,001,2023-12-15_14h13.59.081,game,2022.2.5,60.275059206818405,
,,,,,,,,14,0,14,0,,,,,,,,,,,,,,,,,,,2,1634.3940359999979,1634.3940359999979,1635.3955638999978,1636.4095156999974,None,1636.4095156999974,1636.4095156999974,1,287.6235000003362,space,0.2876235000003362,1636.7265771999955,1637.2296271999949,,,,,,,,,,,,,levi_afternoon_coffee,001,2023-12-15_14h13.59.081,game,2022.2.5,60.275059206818405,
,,,,,,,,15,0,15,0,,,,,,,,,,,,,,,,,,,1,1637.2296271999949,1637.2296271999949,1637.2296271999949,1638.2457635999963,None,1638.2457635999963,1638.2457635999963,1,371.93260000640294,space,0.37193260000640294,1638.6615157999986,1639.163432399997,,,,,,,,,,,,,levi_afternoon_coffee,001,2023-12-15_14h13.59.081,game,2022.2.5,60.275059206818405,
,,,,,,,,16,0,16,0,,,,,,,,,,,,,,,,,,,1,1639.163432399997,1639.163432399997,1639.163432399997,1640.1619389999978,None,1640.1619389999978,1640.1619389999978,1,311.5417000008165,space,0.3115417000008165,1640.5110653999945,1641.012499999997,,,,,,,,,,,,,levi_afternoon_coffee,001,2023-12-15_14h13.59.081,game,2022.2.5,60.275059206818405,
,,,,,,,,17,0,17,0,,,,,,,,,,,,,,,,,,,1,1641.012499999997,1641.012499999997,1641.012499999997,1642.0296434999982,None,1642.0296434999982,1642.0296434999982,1,332.1206000109669,space,0.3321206000109669,1642.397034900001,1642.9119692999957,,,,,,,,,,,,,levi_afternoon_coffee,001,2023-12-15_14h13.59.081,game,2022.2.5,60.275059206818405,
,,,,,,,,18,0,18,0,,,,,,,,,,,,,,,,,,,1,1642.9119692999957,1642.9119692999957,1642.9119692999957,1643.9116140999977,None,1643.9116140999977,1643.9116140999977,1,297.87230000511045,space,0.29787230000511045,1644.244018599995,1644.7622981999957,,,,,,,,,,,,,levi_afternoon_coffee,001,2023-12-15_14h13.59.081,game,2022.2.5,60.275059206818405,
,,,,,,,,19,0,19,0,,,,,,,,,,,,,,,,,,,1,1644.7622981999957,1644.7622981999957,1644.7622981999957,1645.7614504000012,None,1645.7614504000012,1645.7614504000012,1,264.1178000048967,space,0.2641178000048967,1646.0593741999983,1646.5794610000012,,,,,,,,,,,,,levi_afternoon_coffee,001,2023-12-15_14h13.59.081,game,2022.2.5,60.275059206818405,
,,,,,,,,20,0,20,0,,,,,,,,,,,,,,,,,,,1,1646.5794610000012,1646.5794610000012,1646.5794610000012,1647.580213000001,None,1647.580213000001,1647.580213000001,1,277.1767000085674,space,0.2771767000085674,1647.8943489999947,1648.3944207999957,,,,,,,,,,,,,levi_afternoon_coffee,001,2023-12-15_14h13.59.081,game,2022.2.5,60.275059206818405,
,,,,,,,,21,0,21,0,,,,,,,,,,,,,,,,,,,4,1648.3944207999957,1648.3944207999957,,,None,,,0,nan,None,,1654.7612330999982,1655.2608990000008,,,,,,,,,,,,,levi_afternoon_coffee,001,2023-12-15_14h13.59.081,game,2022.2.5,60.275059206818405,
,,,,,,,,22,0,22,0,,,,,,,,,,,,,,,,,,,2,1655.2608990000008,1655.2608990000008,1656.2633223999946,1657.262393799996,None,1657.262393799996,1657.262393799996,1,363.1456000075559,space,0.3631456000075559,1657.6585172999985,1658.1607341999988,,,,,,,,,,,,,levi_afternoon_coffee,001,2023-12-15_14h13.59.081,game,2022.2.5,60.275059206818405,
,,,,,,,,23,0,23,0,,,,,,,,,,,,,,,,,,,3,1658.1607341999988,1658.1607341999988,1660.1617218999963,1661.1617091999942,None,1661.1617091999942,1661.1617091999942,1,329.5779000109178,space,0.3295779000109178,1661.5257159999965,1662.0273073999997,,,,,,,,,,,,,levi_afternoon_coffee,001,2023-12-15_14h13.59.081,game,2022.2.5,60.275059206818405,
,,,,,,,,24,0,24,0,,,,,,,,,,,,,,,,,,,2,1662.0273073999997,1662.0273073999997,1663.0288962999985,1664.0275324999966,None,1664.0275324999966,1664.0275324999966,1,310.7937000095262,space,0.3107937000095262,1664.3924325999978,1664.909527099997,,,,,,,,,,,,,levi_afternoon_coffee,001,2023-12-15_14h13.59.081,game,2022.2.5,60.275059206818405,
,,,,,,,,25,0,25,0,,,,,,,,,,,,,,,,,,,3,1664.909527099997,1664.909527099997,1666.9098616999981,1667.9098042999976,None,1667.9098042999976,1667.9098042999976,1,364.0793000085978,space,0.3640793000085978,1668.3097531999956,1668.8097927999988,,,,,,,,,,,,,levi_afternoon_coffee,001,2023-12-15_14h13.59.081,game,2022.2.5,60.275059206818405,
,,,,,,,,26,0,26,0,,,,,,,,,,,,,,,,,,,4,1668.8097927999988,1668.8097927999988,1671.810854999996,1672.8098742000002,None,1672.8098742000002,1672.8098742000002,1,360.3540000040084,space,0.3603540000040084,1673.2084207999942,1673.7119385999977,,,,,,,,,,,,,levi_afternoon_coffee,001,2023-12-15_14h13.59.081,game,2022.2.5,60.275059206818405,
,,,,,,,,27,0,27,0,,,,,,,,,,,,,,,,,,,4,1673.7119385999977,1673.7119385999977,1676.7100330999965,1677.7093619999941,None,1677.7093619999941,1677.7093619999941,1,365.0205000085407,space,0.3650205000085407,1678.1080244999976,1678.6107243000006,,,,,,,,,,,,,levi_afternoon_coffee,001,2023-12-15_14h13.59.081,game,2022.2.5,60.275059206818405,
,,,,,,,,28,0,28,0,,,,,,,,,,,,,,,,,,,1,1678.6107243000006,1678.6107243000006,1678.6107243000006,1679.6105743000007,None,1679.6105743000007,1679.6105743000007,1,471.04950001084944,space,0.47104950001084944,1680.1251628999962,1680.6268481000006,,,,,,,,,,,,,levi_afternoon_coffee,001,2023-12-15_14h13.59.081,game,2022.2.5,60.275059206818405,
,,,,,,,,29,0,29,0,,,,,,,,,,,,,,,,,,,2,1680.6268481000006,1680.6268481000006,1681.6272013999987,1682.6262650999997,None,1682.6262650999997,1682.6262650999997,1,343.82400001049973,space,0.34382400001049973,1683.0078656999976,1683.5121195999964,,,,,,,,,,,,,levi_afternoon_coffee,001,2023-12-15_14h13.59.081,game,2022.2.5,60.275059206818405,
,,,,,,,,30,0,30,0,,,,,,,,,,,,,,,,,,,4,1683.5121195999964,1683.5121195999964,1686.5283813999995,1687.5265534999999,None,1687.5265534999999,1687.5265534999999,1,307.574200007366,space,0.307574200007366,1687.8899993999948,1688.3941217999964,,,,,,,,,,,,,levi_afternoon_coffee,001,2023-12-15_14h13.59.081,game,2022.2.5,60.275059206818405,
,,,,,,,,31,0,31,0,,,,,,,,,,,,,,,,,,,4,1688.3941217999964,1688.3941217999964,1691.4084191000002,1692.408371599995,None,1692.408371599995,1692.408371599995,1,353.87850000552135,space,0.35387850000552135,1692.7894671999966,1693.2937338999982,,,,,,,,,,,,,levi_afternoon_coffee,001,2023-12-15_14h13.59.081,game,2022.2.5,60.275059206818405,
,,,,,,,,32,0,32,0,,,,,,,,,,,,,,,,,,,1,1693.2937338999982,1693.2937338999982,1693.2937338999982,1694.3089899999977,None,1694.3089899999977,1694.3089899999977,1,540.6640000001062,space,0.5406640000001062,1694.8733713999973,1695.3908505,,,,,,,,,,,,,levi_afternoon_coffee,001,2023-12-15_14h13.59.081,game,2022.2.5,60.275059206818405,
,,,,,,,,33,0,33,0,,,,,,,,,,,,,,,,,,,1,1695.3908505,1695.3908505,1695.3908505,1696.4061584999945,None,1696.4061584999945,1696.4061584999945,1,355.77670000930084,space,0.35577670000930084,1696.7899047999963,1697.2936549000005,,,,,,,,,,,,,levi_afternoon_coffee,001,2023-12-15_14h13.59.081,game,2022.2.5,60.275059206818405,
,,,,,,,,34,0,34,0,,,,,,,,,,,,,,,,,,,3,1697.2936549000005,1697.2936549000005,1699.2915509999948,1700.308363600001,None,1700.308363600001,1700.308363600001,1,310.5498000077205,space,0.3105498000077205,1700.6562527999995,1701.1599376000013,,,,,,,,,,,,,levi_afternoon_coffee,001,2023-12-15_14h13.59.081,game,2022.2.5,60.275059206818405,
,,,,,,,,35,0,35,0,,,,,,,,,,,,,,,,,,,3,1701.1599376000013,1701.1599376000013,1703.1751570999986,1704.1751446999988,None,1704.1751446999988,1704.1751446999988,1,346.61000000778586,space,0.34661000000778586,1704.5728148999988,1705.0745568999992,,,,,,,,,,,,,levi_afternoon_coffee,001,2023-12-15_14h13.59.081,game,2022.2.5,60.275059206818405,
,,,,,,,,36,0,36,0,,,,,,,,,,,,,,,,,,,1,1705.0745568999992,1705.0745568999992,1705.0745568999992,1706.0747009999977,None,1706.0747009999977,1706.0747009999977,1,471.3272000080906,space,0.4713272000080906,1706.590002099998,1707.0913507000005,,,,,,,,,,,,,levi_afternoon_coffee,001,2023-12-15_14h13.59.081,game,2022.2.5,60.275059206818405,
,,,,,,,,37,0,37,0,,,,,,,,,,,,,,,,,,,4,1707.0913507000005,1707.0913507000005,1710.0915292999998,1711.0915346999973,None,1711.0915346999973,1711.0915346999973,1,367.6967000064906,space,0.3676967000064906,1711.4898025000002,1711.991033499995,,,,,,,,,,,,,levi_afternoon_coffee,001,2023-12-15_14h13.59.081,game,2022.2.5,60.275059206818405,
,,,,,,,,38,0,38,0,,,,,,,,,,,,,,,,,,,3,1711.991033499995,1711.991033499995,1713.9936218000003,1714.990959499999,None,1714.990959499999,1714.990959499999,1,339.572800003225,space,0.339572800003225,1715.3727670000007,1715.8743689999974,,,,,,,,,,,,,levi_afternoon_coffee,001,2023-12-15_14h13.59.081,game,2022.2.5,60.275059206818405,
,,,,,,,,39,0,39,0,,,,,,,,,,,,,,,,,,,2,1715.8743689999974,1715.8743689999974,1716.8750761999981,1717.888265900001,None,1717.888265900001,1717.888265900001,1,314.75510000018403,space,0.31475510000018403,1718.239955099998,1718.7410852999965,,,,,,,,,,,,,levi_afternoon_coffee,001,2023-12-15_14h13.59.081,game,2022.2.5,60.275059206818405,
,,,,,,,,40,0,40,0,,,,,,,,,,,,,,,,,,,4,1718.7410852999965,1718.7410852999965,1721.7405022999956,1722.7744321999999,None,1722.7744321999999,1722.7744321999999,1,395.7170000066981,space,0.39571700000669807,1723.225340099998,1723.7285379999958,,,,,,,,,,,,,levi_afternoon_coffee,001,2023-12-15_14h13.59.081,game,2022.2.5,60.275059206818405,
,,,,,,,,41,0,41,0,,,,,,,,,,,,,,,,,,,2,1723.7285379999958,1723.7285379999958,1724.7427036000008,1725.7398909999974,None,1725.7398909999974,1725.7398909999974,1,334.52110000507673,space,0.33452110000507673,1726.1053971000001,1726.607462299995,,,,,,,,,,,,,levi_afternoon_coffee,001,2023-12-15_14h13.59.081,game,2022.2.5,60.275059206818405,
,,,,,,,,42,0,42,0,,,,,,,,,,,,,,,,,,,4,1726.607462299995,1726.607462299995,1729.6100392999942,1730.607394300001,None,1730.607394300001,1730.607394300001,1,330.6789000052959,space,0.3306789000052959,1730.9716399999961,1731.4746945000006,,,,,,,,,,,,,levi_afternoon_coffee,001,2023-12-15_14h13.59.081,game,2022.2.5,60.275059206818405,
,,,,,,,,43,0,43,0,,,,,,,,,,,,,,,,,,,4,1731.4746945000006,1731.4746945000006,1734.4900035999963,1735.4728348999997,None,1735.4728348999997,1735.4728348999997,1,265.82710000366205,space,0.26582710000366205,1735.7711031,1736.2744975999958,,,,,,,,,,,,,levi_afternoon_coffee,001,2023-12-15_14h13.59.081,game,2022.2.5,60.275059206818405,
,,,,,,,,44,0,44,0,,,,,,,,,,,,,,,,,,,4,1736.2744975999958,1736.2744975999958,1739.2721638000003,1740.287655,None,1740.287655,1740.287655,1,322.1665000091889,space,0.3221665000091889,1740.6377802999996,1741.1411972999995,,,,,,,,,,,,,levi_afternoon_coffee,001,2023-12-15_14h13.59.081,game,2022.2.5,60.275059206818405,
,,,,,,,,,,,,,,,,,,,,,,,,,,,,,,,,,,,,,,,,,,,,1741.1411972999995,1741.1411972999995,space,2.8208353000009083,,,,,,,,,levi_afternoon_coffee,001,2023-12-15_14h13.59.081,game,2022.2.5,60.275059206818405,
,,,,,,,,,,,,0,0,0,0,,,,,,,,,,,,,,,,,,,,,,,,,,,,,,,,,1744.0043394999957,1744.0043394999957,num_7,2.333864200001699,,,,,levi_afternoon_coffee,001,2023-12-15_14h13.59.081,game,2022.2.5,60.275059206818405,
,,,,,,,,,,,,1,0,1,0,,,,,,,,,,,,,,,,,,,,,,,,,,,,,,,,,1746.7550226999956,1746.7550226999956,num_1,1.7759008000066387,,,,,levi_afternoon_coffee,001,2023-12-15_14h13.59.081,game,2022.2.5,60.275059206818405,
,,,,,,,,,,,,2,0,2,0,,,,,,,,,,,,,,,,,,,,,,,,,,,,,,,,,1748.921063599999,1748.921063599999,num_2,4.977785600000061,,,,,levi_afternoon_coffee,001,2023-12-15_14h13.59.081,game,2022.2.5,60.275059206818405,
,,,,,,,,,,,,3,0,3,0,,,,,,,,,,,,,,,,,,,,,,,,,,,,,,,,,1754.3203716999997,1754.3203716999997,num_4,2.0896990000037476,,,,,levi_afternoon_coffee,001,2023-12-15_14h13.59.081,game,2022.2.5,60.275059206818405,
,,,,,,,,,,,,4,0,4,0,,,,,,,,,,,,,,,,,,,,,,,,,,,,,,,,,1756.8035697999949,1756.8035697999949,num_7,2.2384730000048876,,,,,levi_afternoon_coffee,001,2023-12-15_14h13.59.081,game,2022.2.5,60.275059206818405,
,,,,,,,,,,,,5,0,5,0,,,,,,,,,,,,,,,,,,,,,,,,,,,,,,,,,1759.4528327000007,1759.4528327000007,num_9,2.949210100006894,,,,,levi_afternoon_coffee,001,2023-12-15_14h13.59.081,game,2022.2.5,60.275059206818405,
,,,,,,,,,,,,6,0,6,0,,,,,,,,,,,,,,,,,,,,,,,,,,,,,,,,,1762.819803899998,1762.819803899998,num_0,3.478313400009938,,,,,levi_afternoon_coffee,001,2023-12-15_14h13.59.081,game,2022.2.5,60.275059206818405,
,,,,,,,,,,,,7,0,7,0,,,,,,,,,,,,,,,,,,,,,,,,,,,,,,,,,1766.7198783999993,1766.7198783999993,num_2,3.7221664000026067,,,,,levi_afternoon_coffee,001,2023-12-15_14h13.59.081,game,2022.2.5,60.275059206818405,
,,,,,,,,,,,,8,0,8,0,,,,,,,,,,,,,,,,,,,,,,,,,,,,,,,,,1770.8532397999952,1770.8532397999952,num_3,6.132995800006029,,,,,levi_afternoon_coffee,001,2023-12-15_14h13.59.081,game,2022.2.5,60.275059206818405,
,,,,,,,,,,,,9,0,9,0,,,,,,,,,,,,,,,,,,,,,,,,,,,,,,,,,1777.4350264999957,1777.4350264999957,num_2,1.6795995000065886,,,,,levi_afternoon_coffee,001,2023-12-15_14h13.59.081,game,2022.2.5,60.275059206818405,
,,,,,,,,,,,,10,0,10,0,,,,,,,,,,,,,,,,,,,,,,,,,,,,,,,,,1779.5571385000003,1779.5571385000003,num_2,4.900893600002746,,,,,levi_afternoon_coffee,001,2023-12-15_14h13.59.081,game,2022.2.5,60.275059206818405,
,,,,,,,,,,,,11,0,11,0,,,,,,,,,,,,,,,,,,,,,,,,,,,,,,,,,1784.9018413000013,1784.9018413000013,num_2,7.08508509999956,,,,,levi_afternoon_coffee,001,2023-12-15_14h13.59.081,game,2022.2.5,60.275059206818405,
,,,,,,,,,,,,12,0,12,0,,,,,,,,,,,,,,,,,,,,,,,,,,,,,,,,,1792.4011590999944,1792.4011590999944,num_8,2.4810290000023087,,,,,levi_afternoon_coffee,001,2023-12-15_14h13.59.081,game,2022.2.5,60.275059206818405,
,,,,,,,,,,,,13,0,13,0,,,,,,,,,,,,,,,,,,,,,,,,,,,,,,,,,1795.302423299996,1795.302423299996,num_6,4.692607100005262,,,,,levi_afternoon_coffee,001,2023-12-15_14h13.59.081,game,2022.2.5,60.275059206818405,
,,,,,,,,,,,,14,0,14,0,,,,,,,,,,,,,,,,,,,,,,,,,,,,,,,,,1800.4199703999984,1800.4199703999984,num_6,4.551434700006212,,,,,levi_afternoon_coffee,001,2023-12-15_14h13.59.081,game,2022.2.5,60.275059206818405,
,,,,,,,,,,,,15,0,15,0,,,,,,,,,,,,,,,,,,,,,,,,,,,,,,,,,1805.3009946999955,1805.3009946999955,num_3,2.773947500005306,,,,,levi_afternoon_coffee,001,2023-12-15_14h13.59.081,game,2022.2.5,60.275059206818405,
,,,,,,,,,,,,16,0,16,0,,,,,,,,,,,,,,,,,,,,,,,,,,,,,,,,,1808.5341683000006,1808.5341683000006,num_6,1.3409181000097306,,,,,levi_afternoon_coffee,001,2023-12-15_14h13.59.081,game,2022.2.5,60.275059206818405,
,,,,,,,,,,,,17,0,17,0,,,,,,,,,,,,,,,,,,,,,,,,,,,,,,,,,1810.2865147999983,1810.2865147999983,num_8,1.8606383000078495,,,,,levi_afternoon_coffee,001,2023-12-15_14h13.59.081,game,2022.2.5,60.275059206818405,
,,,,,,,,,,,,18,0,18,0,,,,,,,,,,,,,,,,,,,,,,,,,,,,,,,,,1812.551002799999,1812.551002799999,num_8,8.13151490000746,,,,,levi_afternoon_coffee,001,2023-12-15_14h13.59.081,game,2022.2.5,60.275059206818405,
,,,,,,,,,,,,19,0,19,0,,,,,,,,,,,,,,,,,,,,,,,,,,,,,,,,,1821.1001898999966,1821.1001898999966,num_3,5.806961499998579,,,,,levi_afternoon_coffee,001,2023-12-15_14h13.59.081,game,2022.2.5,60.275059206818405,
,,,,,,,,,,,,20,0,20,0,,,,,,,,,,,,,,,,,,,,,,,,,,,,,,,,,1827.2996826999952,1827.2996826999952,num_7,9.447007500006293,,,,,levi_afternoon_coffee,001,2023-12-15_14h13.59.081,game,2022.2.5,60.275059206818405,
,,,,,,,,,,,,21,0,21,0,,,,,,,,,,,,,,,,,,,,,,,,,,,,,,,,,1837.1497367999982,1837.1497367999982,num_2,3.0771235000065644,,,,,levi_afternoon_coffee,001,2023-12-15_14h13.59.081,game,2022.2.5,60.275059206818405,
,,,,,,,,,,,,22,0,22,0,,,,,,,,,,,,,,,,,,,,,,,,,,,,,,,,,1840.6491567999983,1840.6491567999983,num_5,3.449960000005376,,,,,levi_afternoon_coffee,001,2023-12-15_14h13.59.081,game,2022.2.5,60.275059206818405,
,,,,,,,,,,,,23,0,23,0,,,,,,,,,,,,,,,,,,,,,,,,,,,,,,,,,1844.4816690000007,1844.4816690000007,num_9,1.5934554000050412,,,,,levi_afternoon_coffee,001,2023-12-15_14h13.59.081,game,2022.2.5,60.275059206818405,
,,,,,,,,,,,,24,0,24,0,,,,,,,,,,,,,,,,,,,,,,,,,,,,,,,,,1846.4996944999948,1846.4996944999948,num_2,10.552296700006991,,,,,levi_afternoon_coffee,001,2023-12-15_14h13.59.081,game,2022.2.5,60.275059206818405,
,,,,,,,,,,,,25,0,25,0,,,,,,,,,,,,,,,,,,,,,,,,,,,,,,,,,1857.4998130999957,1857.4998130999957,num_1,3.0550301000039326,,,,,levi_afternoon_coffee,001,2023-12-15_14h13.59.081,game,2022.2.5,60.275059206818405,
,,,,,,,,,,,,26,0,26,0,,,,,,,,,,,,,,,,,,,,,,,,,,,,,,,,,1860.9823988999997,1860.9823988999997,num_5,4.34065050000936,,,,,levi_afternoon_coffee,001,2023-12-15_14h13.59.081,game,2022.2.5,60.275059206818405,
,,,,,,,,,,,,27,0,27,0,,,,,,,,,,,,,,,,,,,,,,,,,,,,,,,,,1865.7310505999994,1865.7310505999994,num_0,1.8559671000039089,,,,,levi_afternoon_coffee,001,2023-12-15_14h13.59.081,game,2022.2.5,60.275059206818405,
,,,,,,,,,,,,28,0,28,0,,,,,,,,,,,,,,,,,,,,,,,,,,,,,,,,,1867.964229899997,1867.964229899997,num_3,4.591131700006372,,,,,levi_afternoon_coffee,001,2023-12-15_14h13.59.081,game,2022.2.5,60.275059206818405,
,,,,,,,,,,,,29,0,29,0,,,,,,,,,,,,,,,,,,,,,,,,,,,,,,,,,1872.9808268999986,1872.9808268999986,num_6,4.6234661000053165,,,,,levi_afternoon_coffee,001,2023-12-15_14h13.59.081,game,2022.2.5,60.275059206818405,
,,,,,,,,,,,,30,0,30,0,,,,,,,,,,,,,,,,,,,,,,,,,,,,,,,,,1878.0136936999988,1878.0136936999988,num_2,4.638798300009512,,,,,levi_afternoon_coffee,001,2023-12-15_14h13.59.081,game,2022.2.5,60.275059206818405,
,,,,,,,,,,,,31,0,31,0,,,,,,,,,,,,,,,,,,,,,,,,,,,,,,,,,1883.079903699996,1883.079903699996,num_7,4.723616300005233,,,,,levi_afternoon_coffee,001,2023-12-15_14h13.59.081,game,2022.2.5,60.275059206818405,
,,,,,,,,,,,,32,0,32,0,,,,,,,,,,,,,,,,,,,,,,,,,,,,,,,,,1888.2133297999972,1888.2133297999972,num_2,3.0220825000069453,,,,,levi_afternoon_coffee,001,2023-12-15_14h13.59.081,game,2022.2.5,60.275059206818405,
,,,,,,,,,,,,33,0,33,0,,,,,,,,,,,,,,,,,,,,,,,,,,,,,,,,,1891.6294807000013,1891.6294807000013,None,,,,,,levi_afternoon_coffee,001,2023-12-15_14h13.59.081,game,2022.2.5,60.275059206818405,
,,,,,,,,,,,,,,,,,,,,,,,,,,,,,,,,,,,,,,,,,,,,,,,,,,,,2954.0934655999954,2954.0934655999954,space,133.47858509999787,levi_afternoon_coffee,001,2023-12-15_14h13.59.081,game,2022.2.5,60.275059206818405,
,,,,,,,,,,,,,,,,,,,,,,,,,,3087.602065799998,3087.602065799998,space,1.8745558000082383,,,,,,,,,,,,,,,,,,,,,,,,,,,levi_afternoon_coffee,001,2023-12-15_14h13.59.081,game,2022.2.5,60.275059206818405,
,,,,,,,,,,,,,,,,0,0,0,0,,,,,,,,,,,3,3089.515310099996,3089.515310099996,3091.5191615000003,3092.516254199996,None,3092.516254199996,3092.516254199996,1,342.7620000074967,space,0.3427620000074967,3092.898068800001,3093.4013141999967,,,,,,,,,,,,,levi_afternoon_coffee,001,2023-12-15_14h13.59.081,game,2022.2.5,60.275059206818405,
,,,,,,,,,,,,,,,,1,0,1,0,,,,,,,,,,,4,3093.4013141999967,3093.4013141999967,3096.3993110999945,3097.4143922000003,None,3097.4143922000003,3097.4143922000003,1,348.6019000047236,space,0.3486019000047236,3097.7982682,3098.3010830999992,,,,,,,,,,,,,levi_afternoon_coffee,001,2023-12-15_14h13.59.081,game,2022.2.5,60.275059206818405,
,,,,,,,,,,,,,,,,2,0,2,0,,,,,,,,,,,3,3098.3010830999992,3098.3010830999992,3100.3013232999947,3101.314436599998,None,3101.314436599998,3101.314436599998,1,304.609500009974,space,0.304609500009974,3101.6480521999983,3102.150103299995,,,,,,,,,,,,,levi_afternoon_coffee,001,2023-12-15_14h13.59.081,game,2022.2.5,60.275059206818405,
,,,,,,,,,,,,,,,,3,0,3,0,,,,,,,,,,,1,3102.150103299995,3102.150103299995,3102.150103299995,3103.164622199998,None,3103.164622199998,3103.164622199998,1,454.1328000050271,space,0.4541328000050271,3103.664942299998,3104.181373200001,,,,,,,,,,,,,levi_afternoon_coffee,001,2023-12-15_14h13.59.081,game,2022.2.5,60.275059206818405,
,,,,,,,,,,,,,,,,4,0,4,0,,,,,,,,,,,2,3104.181373200001,3104.181373200001,3105.183574499999,3106.183610699998,None,3106.183610699998,3106.183610699998,1,338.9784000100917,space,0.3389784000100917,3106.564381999997,3107.0660414999948,,,,,,,,,,,,,levi_afternoon_coffee,001,2023-12-15_14h13.59.081,game,2022.2.5,60.275059206818405,
,,,,,,,,,,,,,,,,5,0,5,0,,,,,,,,,,,2,3107.0660414999948,3107.0660414999948,3108.0659410000007,3109.065458099998,None,3109.065458099998,3109.065458099998,1,329.61160000559175,space,0.32961160000559175,3109.431101199996,3109.9508032999947,,,,,,,,,,,,,levi_afternoon_coffee,001,2023-12-15_14h13.59.081,game,2022.2.5,60.275059206818405,
,,,,,,,,,,,,,,,,6,0,6,0,,,,,,,,,,,3,3109.9508032999947,3109.9508032999947,3111.9654378999985,3112.950309199994,None,3112.950309199994,3112.950309199994,1,324.79300000704825,space,0.32479300000704825,3113.3157668999993,3113.817835099995,,,,,,,,,,,,,levi_afternoon_coffee,001,2023-12-15_14h13.59.081,game,2022.2.5,60.275059206818405,
,,,,,,,,,,,,,,,,7,0,7,0,,,,,,,,,,,1,3113.817835099995,3113.817835099995,3113.817835099995,3114.8322989999942,None,3114.8322989999942,3114.8322989999942,1,410.7646999982535,space,0.4107646999982535,3115.2805392999944,3115.7825916,,,,,,,,,,,,,levi_afternoon_coffee,001,2023-12-15_14h13.59.081,game,2022.2.5,60.275059206818405,
,,,,,,,,,,,,,,,,8,0,8,0,,,,,,,,,,,1,3115.7825916,3115.7825916,3115.7825916,3116.798960399996,None,3116.798960399996,3116.798960399996,1,323.84810000803554,space,0.32384810000803554,3117.1655336999975,3117.6669127999994,,,,,,,,,,,,,levi_afternoon_coffee,001,2023-12-15_14h13.59.081,game,2022.2.5,60.275059206818405,
,,,,,,,,,,,,,,,,9,0,9,0,,,,,,,,,,,4,3117.6669127999994,3117.6669127999994,3120.6658712999997,3121.665498800001,None,3121.665498800001,3121.665498800001,1,321.35180000477703,space,0.32135180000477703,3122.029832799999,3122.5310618000003,,,,,,,,,,,,,levi_afternoon_coffee,001,2023-12-15_14h13.59.081,game,2022.2.5,60.275059206818405,
,,,,,,,,,,,,,,,,10,0,10,0,,,,,,,,,,,3,3122.5310618000003,3122.5310618000003,3124.533625600001,3125.531011299994,None,3125.531011299994,3125.531011299994,1,311.738400007016,space,0.311738400007016,3125.880168799995,3126.3830575999964,,,,,,,,,,,,,levi_afternoon_coffee,001,2023-12-15_14h13.59.081,game,2022.2.5,60.275059206818405,
,,,,,,,,,,,,,,,,11,0,11,0,,,,,,,,,,,2,3126.3830575999964,3126.3830575999964,3127.3983399999997,3128.3956188999946,None,3128.3956188999946,3128.3956188999946,1,335.20960000896594,space,0.33520960000896594,3128.7619062000012,3129.264114599995,,,,,,,,,,,,,levi_afternoon_coffee,001,2023-12-15_14h13.59.081,game,2022.2.5,60.275059206818405,
,,,,,,,,,,,,,,,,12,0,12,0,,,,,,,,,,,4,3129.264114599995,3129.264114599995,3132.2657354999974,3133.263851799995,None,3133.263851799995,3133.263851799995,1,307.16680000477936,space,0.30716680000477936,3133.5962151999993,3134.0983134999988,,,,,,,,,,,,,levi_afternoon_coffee,001,2023-12-15_14h13.59.081,game,2022.2.5,60.275059206818405,
,,,,,,,,,,,,,,,,13,0,13,0,,,,,,,,,,,4,3134.0983134999988,3134.0983134999988,3137.097305299998,3138.1144780999966,None,3138.1144780999966,3138.1144780999966,1,328.48260000901064,space,0.32848260000901064,3138.466675799995,3138.9656946999967,,,,,,,,,,,,,levi_afternoon_coffee,001,2023-12-15_14h13.59.081,game,2022.2.5,60.275059206818405,
,,,,,,,,,,,,,,,,14,0,14,0,,,,,,,,,,,2,3138.9656946999967,3138.9656946999967,3139.9680146999963,3140.980790900001,None,3140.980790900001,3140.980790900001,1,334.3291000055615,space,0.3343291000055615,3141.3459357999964,3141.848730599995,,,,,,,,,,,,,levi_afternoon_coffee,001,2023-12-15_14h13.59.081,game,2022.2.5,60.275059206818405,
,,,,,,,,,,,,,,,,15,0,15,0,,,,,,,,,,,2,3141.848730599995,3141.848730599995,3142.8491828999977,3143.8475840999963,None,3143.8475840999963,3143.8475840999963,1,315.65510000655195,space,0.31565510000655195,3144.2122325999953,3144.715285799997,,,,,,,,,,,,,levi_afternoon_coffee,001,2023-12-15_14h13.59.081,game,2022.2.5,60.275059206818405,
,,,,,,,,,,,,,,,,16,0,16,0,,,,,,,,,,,1,3144.715285799997,3144.715285799997,3144.715285799997,3145.748590199997,None,3145.748590199997,3145.748590199997,1,358.6462000021129,space,0.3586462000021129,3146.1459370999946,3146.663465599995,,,,,,,,,,,,,levi_afternoon_coffee,001,2023-12-15_14h13.59.081,game,2022.2.5,60.275059206818405,
,,,,,,,,,,,,,,,,17,0,17,0,,,,,,,,,,,4,3146.663465599995,3146.663465599995,3149.6628233999945,3150.678774,None,3150.678774,3150.678774,1,412.07410000788514,space,0.41207410000788514,3151.1286598000006,3151.629543999996,,,,,,,,,,,,,levi_afternoon_coffee,001,2023-12-15_14h13.59.081,game,2022.2.5,60.275059206818405,
,,,,,,,,,,,,,,,,18,0,18,0,,,,,,,,,,,4,3151.629543999996,3151.629543999996,3154.6296263999975,3155.6299356999953,None,3155.6299356999953,3155.6299356999953,1,382.52050000301097,space,0.38252050000301097,3156.061516099995,3156.562496899998,,,,,,,,,,,,,levi_afternoon_coffee,001,2023-12-15_14h13.59.081,game,2022.2.5,60.275059206818405,
,,,,,,,,,,,,,,,,19,0,19,0,,,,,,,,,,,3,3156.562496899998,3156.562496899998,3158.5624093000006,3159.5624391999954,None,3159.5624391999954,3159.5624391999954,1,328.8566000046558,space,0.3288566000046558,3159.928114800001,3160.428970699999,,,,,,,,,,,,,levi_afternoon_coffee,001,2023-12-15_14h13.59.081,game,2022.2.5,60.275059206818405,
,,,,,,,,,,,,,,,,20,0,20,0,,,,,,,,,,,1,3160.428970699999,3160.428970699999,3160.428970699999,3161.4290598000007,None,3161.4290598000007,3161.4290598000007,1,445.83250000869157,space,0.44583250000869157,3161.911518199995,3162.4125916999983,,,,,,,,,,,,,levi_afternoon_coffee,001,2023-12-15_14h13.59.081,game,2022.2.5,60.275059206818405,
,,,,,,,,,,,,,,,,21,0,21,0,,,,,,,,,,,1,3162.4125916999983,3162.4125916999983,3162.4125916999983,3163.412398100001,None,3163.412398100001,3163.412398100001,1,406.839499999478,space,0.406839499999478,3163.844733699996,3164.3476637999993,,,,,,,,,,,,,levi_afternoon_coffee,001,2023-12-15_14h13.59.081,game,2022.2.5,60.275059206818405,
,,,,,,,,,,,,,,,,22,0,22,0,,,,,,,,,,,1,3164.3476637999993,3164.3476637999993,3164.3476637999993,3165.3471113999985,None,3165.3471113999985,3165.3471113999985,1,312.9784000047948,space,0.3129784000047948,3165.6944065999996,3166.196804499996,,,,,,,,,,,,,levi_afternoon_coffee,001,2023-12-15_14h13.59.081,game,2022.2.5,60.275059206818405,
,,,,,,,,,,,,,,,,,,,,,,,,,,,,,,2,3166.196804499996,3166.196804499996,3167.197413199996,3168.210695099995,None,3168.210695099995,3168.210695099995,,,,,,,,,,,,,,,,,,,,,,,,,
