trials.thisRepN,trials.thisTrialN,trials.thisN,trials.thisIndex,trials_3.thisRepN,trials_3.thisTrialN,trials_3.thisN,trials_3.thisIndex,trials_6.thisRepN,trials_6.thisTrialN,trials_6.thisN,trials_6.thisIndex,trials_5.thisRepN,trials_5.thisTrialN,trials_5.thisN,trials_5.thisIndex,trials_4.thisRepN,trials_4.thisTrialN,trials_4.thisN,trials_4.thisIndex,trials_2.thisRepN,trials_2.thisTrialN,trials_2.thisN,trials_2.thisIndex,text_2.started,key_resp.started,key_resp.keys,key_resp.rt,text_4.started,text_4.stopped,InstructionsText.started,InstrucKey.started,InstrucKey.keys,InstrucKey.rt,ISI,ISI_text.started,dontrespond.started,dontrespond.stopped,ISI_text.stopped,dontrespond.keys,Targetstim.started,Response.started,Accuracy,RTms,Response.keys,Response.rt,Feedback_text.started,Feedback_text.stopped,text_6.started,key_resp_2.started,key_resp_2.keys,key_resp_2.rt,key_resp_4.started,text_7.started,key_resp_4.keys,key_resp_4.rt,text_13.started,key_resp_6.started,key_resp_6.keys,key_resp_6.rt,text_3.started,participant,session,date,expName,psychopyVersion,frameRate,
,,,,,,,,,,,,,,,,,,,,,,,,20.58766850000029,20.58766850000029,space,6.008644699999422,,,,,,,,,,,,,,,,,,,,,,,,,,,,,,,,,,Vojta,001,2023-12-15_11h41.36.213,game,2022.2.5,60.8736463981828,
,,,,,,,,,,,,,,,,,,,,,,,,,,,,26.6244254000012,56.63813300000038,56.63813300000038,56.63813300000038,space,5.623029399997904,,,,,,,,,,,,,,,,,,,,,,,,,,,,Vojta,001,2023-12-15_11h41.36.213,game,2022.2.5,60.8736463981828,
0,0,0,0,,,,,,,,,,,,,,,,,,,,,,,,,,,,,,,3,62.30140839999876,62.30140839999876,64.30144300000029,65.31826310000179,None,65.31826310000179,65.31826310000179,1,334.34269999997923,space,0.33434269999997923,65.68358190000072,66.18660810000074,,,,,,,,,,,,,,Vojta,001,2023-12-15_11h41.36.213,game,2022.2.5,60.8736463981828,
1,0,1,0,,,,,,,,,,,,,,,,,,,,,,,,,,,,,,,3,66.18660810000074,66.18660810000074,68.18917940000028,69.20035999999891,None,69.20035999999891,69.20035999999891,1,356.59640000085346,space,0.35659640000085346,69.58378939999966,70.12299440000061,,,,,,,,,,,,,,Vojta,001,2023-12-15_11h41.36.213,game,2022.2.5,60.8736463981828,
2,0,2,0,,,,,,,,,,,,,,,,,,,,,,,,,,,,,,,2,70.12299440000061,70.12299440000061,71.1384767999989,72.13559009999881,None,72.13559009999881,72.13559009999881,1,285.6509000012011,space,0.2856509000012011,72.4692294000015,72.96760690000156,,,,,,,,,,,,,,Vojta,001,2023-12-15_11h41.36.213,game,2022.2.5,60.8736463981828,
3,0,3,0,,,,,,,,,,,,,,,,,,,,,,,,,,,,,,,3,72.96760690000156,72.96760690000156,74.98810840000078,75.98574029999872,None,75.98574029999872,75.98574029999872,1,299.21200000171666,space,0.29921200000171666,76.3907704000012,76.91853040000206,,,,,,,,,,,,,,Vojta,001,2023-12-15_11h41.36.213,game,2022.2.5,60.8736463981828,
4,0,4,0,,,,,,,,,,,,,,,,,,,,,,,,,,,,,,,3,76.91853040000206,76.91853040000206,78.92050310000195,79.91769510000086,None,79.91769510000086,79.91769510000086,1,311.36610000248766,space,0.31136610000248766,80.26660400000037,80.78535499999998,,,,,,,,,,,,,,Vojta,001,2023-12-15_11h41.36.213,game,2022.2.5,60.8736463981828,
5,0,5,0,,,,,,,,,,,,,,,,,,,,,,,,,,,,,,,4,80.78535499999998,80.78535499999998,83.78503199999977,,None,,,0,nan,None,,89.0685364000019,89.56837110000197,,,,,,,,,,,,,,Vojta,001,2023-12-15_11h41.36.213,game,2022.2.5,60.8736463981828,
6,0,6,0,,,,,,,,,,,,,,,,,,,,,,,,,,,,,,,2,89.56837110000197,89.56837110000197,,,None,,,0,nan,None,,94.56904090000171,95.08213539999997,,,,,,,,,,,,,,Vojta,001,2023-12-15_11h41.36.213,game,2022.2.5,60.8736463981828,
7,0,7,0,,,,,,,,,,,,,,,,,,,,,,,,,,,,,,,2,95.08213539999997,95.08213539999997,96.08802189999915,97.10099919999993,None,97.10099919999993,97.10099919999993,1,513.2575000025099,space,0.5132575000025099,97.64944969999851,98.20457090000127,,,,,,,,,,,,,,Vojta,001,2023-12-15_11h41.36.213,game,2022.2.5,60.8736463981828,
8,0,8,0,,,,,,,,,,,,,,,,,,,,,,,,,,,,,,,2,98.20457090000127,98.20457090000127,99.21902810000029,100.21796790000008,None,100.21796790000008,100.21796790000008,1,322.9878000020108,space,0.32298780000201077,100.58657379999931,101.10250799999994,,,,,,,,,,,,,,Vojta,001,2023-12-15_11h41.36.213,game,2022.2.5,60.8736463981828,
9,0,9,0,,,,,,,,,,,,,,,,,,,,,,,,,,,,,,,1,101.10250799999994,101.10250799999994,101.10250799999994,102.11605810000037,None,102.11605810000037,102.11605810000037,1,312.93259999802103,space,0.31293259999802103,102.4662090999991,102.96753819999867,,,,,,,,,,,,,,Vojta,001,2023-12-15_11h41.36.213,game,2022.2.5,60.8736463981828,
10,0,10,0,,,,,,,,,,,,,,,,,,,,,,,,,,,,,,,1,102.96753819999867,102.96753819999867,102.96753819999867,103.96860730000117,None,103.96860730000117,103.96860730000117,1,292.58690000278875,space,0.29258690000278875,104.29822050000075,104.81735760000083,,,,,,,,,,,,,,Vojta,001,2023-12-15_11h41.36.213,game,2022.2.5,60.8736463981828,
11,0,11,0,,,,,,,,,,,,,,,,,,,,,,,,,,,,,,,2,104.81735760000083,104.81735760000083,105.82031350000034,106.8161437000017,None,106.8161437000017,106.8161437000017,1,308.50030000146944,space,0.30850030000146944,107.14762460000202,107.66677500000151,,,,,,,,,,,,,,Vojta,001,2023-12-15_11h41.36.213,game,2022.2.5,60.8736463981828,
12,0,12,0,,,,,,,,,,,,,,,,,,,,,,,,,,,,,,,3,107.66677500000151,107.66677500000151,109.66995360000146,110.7017823999995,None,110.7017823999995,110.7017823999995,1,295.3514000037103,space,0.2953514000037103,111.12194689999887,111.63375860000087,,,,,,,,,,,,,,Vojta,001,2023-12-15_11h41.36.213,game,2022.2.5,60.8736463981828,
13,0,13,0,,,,,,,,,,,,,,,,,,,,,,,,,,,,,,,3,111.63375860000087,111.63375860000087,113.63475380000091,114.63428339999882,None,114.63428339999882,114.63428339999882,1,330.35039999958826,space,0.33035039999958826,114.99857650000195,115.53607320000083,,,,,,,,,,,,,,Vojta,001,2023-12-15_11h41.36.213,game,2022.2.5,60.8736463981828,
14,0,14,0,,,,,,,,,,,,,,,,,,,,,,,,,,,,,,,2,115.53607320000083,115.53607320000083,116.53707679999934,117.5493764999992,None,117.5493764999992,117.5493764999992,1,327.64480000332696,space,0.32764480000332696,117.91496700000062,118.41585789999954,,,,,,,,,,,,,,Vojta,001,2023-12-15_11h41.36.213,game,2022.2.5,60.8736463981828,
15,0,15,0,,,,,,,,,,,,,,,,,,,,,,,,,,,,,,,3,118.41585789999954,118.41585789999954,120.41530910000074,121.4163727999985,None,121.4163727999985,121.4163727999985,1,300.8289999997942,space,0.3008289999997942,121.7487829999991,122.25125750000007,,,,,,,,,,,,,,Vojta,001,2023-12-15_11h41.36.213,game,2022.2.5,60.8736463981828,
16,0,16,0,,,,,,,,,,,,,,,,,,,,,,,,,,,,,,,2,122.25125750000007,122.25125750000007,123.25701399999889,124.26538000000073,None,124.26538000000073,124.26538000000073,1,300.0611999996181,space,0.3000611999996181,124.61667959999977,125.13290269999925,,,,,,,,,,,,,,Vojta,001,2023-12-15_11h41.36.213,game,2022.2.5,60.8736463981828,
17,0,17,0,,,,,,,,,,,,,,,,,,,,,,,,,,,,,,,1,125.13290269999925,125.13290269999925,125.13290269999925,126.14724109999952,None,126.14724109999952,126.14724109999952,1,337.67030000308296,space,0.33767030000308296,126.51542150000023,127.01760619999914,,,,,,,,,,,,,,Vojta,001,2023-12-15_11h41.36.213,game,2022.2.5,60.8736463981828,
18,0,18,0,,,,,,,,,,,,,,,,,,,,,,,,,,,,,,,4,127.01760619999914,127.01760619999914,130.01916650000203,131.03208010000162,None,131.03208010000162,131.03208010000162,1,308.9418999988993,space,0.3089418999988993,131.382196999999,131.88273209999898,,,,,,,,,,,,,,Vojta,001,2023-12-15_11h41.36.213,game,2022.2.5,60.8736463981828,
19,0,19,0,,,,,,,,,,,,,,,,,,,,,,,,,,,,,,,1,131.88273209999898,131.88273209999898,131.88273209999898,132.89860240000053,None,132.89860240000053,132.89860240000053,1,347.1129999998084,space,0.3471129999998084,133.29698370000187,133.8150181000019,,,,,,,,,,,,,,Vojta,001,2023-12-15_11h41.36.213,game,2022.2.5,60.8736463981828,
20,0,20,0,,,,,,,,,,,,,,,,,,,,,,,,,,,,,,,3,133.8150181000019,133.8150181000019,135.82016189999922,136.81614239999908,None,136.81614239999908,136.81614239999908,1,325.29300000169314,space,0.32529300000169314,137.18039370000042,137.6842562999991,,,,,,,,,,,,,,Vojta,001,2023-12-15_11h41.36.213,game,2022.2.5,60.8736463981828,
21,0,21,0,,,,,,,,,,,,,,,,,,,,,,,,,,,,,,,3,137.6842562999991,137.6842562999991,139.69967170000018,140.69675619999907,None,140.69675619999907,140.69675619999907,1,309.09059999976307,space,0.30909059999976307,141.029585100001,141.5336004000019,,,,,,,,,,,,,,Vojta,001,2023-12-15_11h41.36.213,game,2022.2.5,60.8736463981828,
22,0,22,0,,,,,,,,,,,,,,,,,,,,,,,,,,,,,,,4,141.5336004000019,141.5336004000019,144.5662384999996,145.54988510000112,None,145.54988510000112,145.54988510000112,1,303.28540000118664,space,0.30328540000118664,145.88051170000108,146.38245760000063,,,,,,,,,,,,,,Vojta,001,2023-12-15_11h41.36.213,game,2022.2.5,60.8736463981828,
23,0,23,0,,,,,,,,,,,,,,,,,,,,,,,,,,,,,,,2,146.38245760000063,146.38245760000063,147.39932979999867,148.3957776999996,None,148.3957776999996,148.3957776999996,1,322.1843999999692,space,0.3221843999999692,148.7841597000006,149.31514660000175,,,,,,,,,,,,,,Vojta,001,2023-12-15_11h41.36.213,game,2022.2.5,60.8736463981828,
24,0,24,0,,,,,,,,,,,,,,,,,,,,,,,,,,,,,,,4,149.31514660000175,149.31514660000175,152.3178040999992,153.31618979999985,None,153.31618979999985,153.31618979999985,1,288.58450000188896,space,0.28858450000188896,153.6461285000005,154.16225549999945,,,,,,,,,,,,,,Vojta,001,2023-12-15_11h41.36.213,game,2022.2.5,60.8736463981828,
25,0,25,0,,,,,,,,,,,,,,,,,,,,,,,,,,,,,,,3,154.16225549999945,154.16225549999945,156.16408520000186,157.1796744000021,None,157.1796744000021,157.1796744000021,1,297.4718000041321,space,0.2974718000041321,157.51430080000137,158.03022630000123,,,,,,,,,,,,,,Vojta,001,2023-12-15_11h41.36.213,game,2022.2.5,60.8736463981828,
26,0,26,0,,,,,,,,,,,,,,,,,,,,,,,,,,,,,,,2,158.03022630000123,158.03022630000123,159.02971930000058,160.03146639999977,None,160.03146639999977,160.03146639999977,1,325.89759999973467,space,0.32589759999973467,160.39693470000202,160.9139662000016,,,,,,,,,,,,,,Vojta,001,2023-12-15_11h41.36.213,game,2022.2.5,60.8736463981828,
27,0,27,0,,,,,,,,,,,,,,,,,,,,,,,,,,,,,,,3,160.9139662000016,160.9139662000016,162.91628290000153,163.91512100000182,None,163.91512100000182,163.91512100000182,1,298.20029999973485,space,0.29820029999973485,164.25098179999986,164.76451760000054,,,,,,,,,,,,,,Vojta,001,2023-12-15_11h41.36.213,game,2022.2.5,60.8736463981828,
28,0,28,0,,,,,,,,,,,,,,,,,,,,,,,,,,,,,,,1,164.76451760000054,164.76451760000054,164.76451760000054,165.7953895999999,None,165.7953895999999,165.7953895999999,1,353.46040000149515,space,0.35346040000149515,166.18069430000105,166.69700690000172,,,,,,,,,,,,,,Vojta,001,2023-12-15_11h41.36.213,game,2022.2.5,60.8736463981828,
29,0,29,0,,,,,,,,,,,,,,,,,,,,,,,,,,,,,,,3,166.69700690000172,166.69700690000172,168.69790750000175,169.74882140000045,None,169.74882140000045,169.74882140000045,1,304.4053999983589,space,0.3044053999983589,170.09581460000118,170.59884529999908,,,,,,,,,,,,,,Vojta,001,2023-12-15_11h41.36.213,game,2022.2.5,60.8736463981828,
30,0,30,0,,,,,,,,,,,,,,,,,,,,,,,,,,,,,,,2,170.59884529999908,170.59884529999908,171.61720369999966,172.61340510000082,None,172.61340510000082,172.61340510000082,1,303.9338000016869,space,0.3039338000016869,172.93274369999926,173.43126140000095,,,,,,,,,,,,,,Vojta,001,2023-12-15_11h41.36.213,game,2022.2.5,60.8736463981828,
31,0,31,0,,,,,,,,,,,,,,,,,,,,,,,,,,,,,,,2,173.43126140000095,173.43126140000095,174.44953670000177,175.48172350000095,None,175.48172350000095,175.48172350000095,1,307.8384000000369,space,0.3078384000000369,175.8286212000021,176.33107219999874,,,,,,,,,,,,,,Vojta,001,2023-12-15_11h41.36.213,game,2022.2.5,60.8736463981828,
32,0,32,0,,,,,,,,,,,,,,,,,,,,,,,,,,,,,,,2,176.33107219999874,176.33107219999874,177.34547609999936,178.3299005000008,None,178.3299005000008,178.3299005000008,1,299.91510000036214,space,0.29991510000036214,178.66220560000147,179.16702129999976,,,,,,,,,,,,,,Vojta,001,2023-12-15_11h41.36.213,game,2022.2.5,60.8736463981828,
33,0,33,0,,,,,,,,,,,,,,,,,,,,,,,,,,,,,,,1,179.16702129999976,179.16702129999976,179.16702129999976,180.19679309999992,None,180.19679309999992,180.19679309999992,1,312.2680999986187,space,0.3122680999986187,180.56038329999865,181.07952859999932,,,,,,,,,,,,,,Vojta,001,2023-12-15_11h41.36.213,game,2022.2.5,60.8736463981828,
34,0,34,0,,,,,,,,,,,,,,,,,,,,,,,,,,,,,,,1,181.07952859999932,181.07952859999932,181.07952859999932,182.09620670000004,None,182.09620670000004,182.09620670000004,1,285.07019999960903,space,0.28507019999960903,182.41278700000112,182.91326870000194,,,,,,,,,,,,,,Vojta,001,2023-12-15_11h41.36.213,game,2022.2.5,60.8736463981828,
35,0,35,0,,,,,,,,,,,,,,,,,,,,,,,,,,,,,,,1,182.91326870000194,182.91326870000194,182.91326870000194,183.92754820000118,None,183.92754820000118,183.92754820000118,1,301.88840000118944,space,0.30188840000118944,184.26136540000152,184.78031360000023,,,,,,,,,,,,,,Vojta,001,2023-12-15_11h41.36.213,game,2022.2.5,60.8736463981828,
36,0,36,0,,,,,,,,,,,,,,,,,,,,,,,,,,,,,,,2,184.78031360000023,184.78031360000023,185.78358669999943,186.7964823000002,None,186.7964823000002,186.7964823000002,1,289.13480000119307,space,0.28913480000119307,187.1276512000004,187.63141710000127,,,,,,,,,,,,,,Vojta,001,2023-12-15_11h41.36.213,game,2022.2.5,60.8736463981828,
37,0,37,0,,,,,,,,,,,,,,,,,,,,,,,,,,,,,,,1,187.63141710000127,187.63141710000127,187.63141710000127,188.6625638000005,None,188.6625638000005,188.6625638000005,1,319.5211999991443,space,0.3195211999991443,189.10022350000145,189.61244609999994,,,,,,,,,,,,,,Vojta,001,2023-12-15_11h41.36.213,game,2022.2.5,60.8736463981828,
38,0,38,0,,,,,,,,,,,,,,,,,,,,,,,,,,,,,,,2,189.61244609999994,189.61244609999994,190.6159938000019,191.61444539999866,None,191.61444539999866,191.61444539999866,1,295.5155999989074,space,0.2955155999989074,191.94357990000208,192.4622703999994,,,,,,,,,,,,,,Vojta,001,2023-12-15_11h41.36.213,game,2022.2.5,60.8736463981828,
39,0,39,0,,,,,,,,,,,,,,,,,,,,,,,,,,,,,,,3,192.4622703999994,192.4622703999994,194.4819294000008,195.47816859999875,None,195.47816859999875,195.47816859999875,1,335.125199999311,space,0.335125199999311,195.84438030000092,196.34679239999969,,,,,,,,,,,,,,Vojta,001,2023-12-15_11h41.36.213,game,2022.2.5,60.8736463981828,
40,0,40,0,,,,,,,,,,,,,,,,,,,,,,,,,,,,,,,4,196.34679239999969,196.34679239999969,199.3466625000001,200.34930560000066,None,200.34930560000066,200.34930560000066,1,257.49480000013136,space,0.25749480000013136,200.63228720000188,201.14724980000028,,,,,,,,,,,,,,Vojta,001,2023-12-15_11h41.36.213,game,2022.2.5,60.8736463981828,
41,0,41,0,,,,,,,,,,,,,,,,,,,,,,,,,,,,,,,4,201.14724980000028,201.14724980000028,204.18390670000008,,None,,,0,nan,None,,209.39780529999916,209.92613039999924,,,,,,,,,,,,,,Vojta,001,2023-12-15_11h41.36.213,game,2022.2.5,60.8736463981828,
42,0,42,0,,,,,,,,,,,,,,,,,,,,,,,,,,,,,,,2,209.92613039999924,209.92613039999924,210.93152539999937,211.98159360000136,None,211.98159360000136,211.98159360000136,1,375.99649999901885,space,0.37599649999901885,212.40923470000052,212.91376560000208,,,,,,,,,,,,,,Vojta,001,2023-12-15_11h41.36.213,game,2022.2.5,60.8736463981828,
,,,,,,,,,,,,,,,,,,,,,,,,,,,,,,,,,,,,,,,,,,,,,,,,212.91376560000208,212.91376560000208,space,28.671283299998322,,,,,,,,,,Vojta,001,2023-12-15_11h41.36.213,game,2022.2.5,60.8736463981828,
,,,,0,0,0,0,,,,,,,,,,,,,,,,,,,,,,,,,,,,,,,,,,,,,,,,,,,,,241.73376439999993,241.73376439999993,num_4,3.6156313000028604,,,,,,Vojta,001,2023-12-15_11h41.36.213,game,2022.2.5,60.8736463981828,
,,,,1,0,1,0,,,,,,,,,,,,,,,,,,,,,,,,,,,,,,,,,,,,,,,,,,,,,245.7252554000006,245.7252554000006,num_7,2.5298314000028768,,,,,,Vojta,001,2023-12-15_11h41.36.213,game,2022.2.5,60.8736463981828,
,,,,2,0,2,0,,,,,,,,,,,,,,,,,,,,,,,,,,,,,,,,,,,,,,,,,,,,,248.69534900000144,248.69534900000144,num_0,1.4870674000012514,,,,,,Vojta,001,2023-12-15_11h41.36.213,game,2022.2.5,60.8736463981828,
,,,,3,0,3,0,,,,,,,,,,,,,,,,,,,,,,,,,,,,,,,,,,,,,,,,,,,,,250.7135691000003,250.7135691000003,num_5,12.571958100001211,,,,,,Vojta,001,2023-12-15_11h41.36.213,game,2022.2.5,60.8736463981828,
,,,,4,0,4,0,,,,,,,,,,,,,,,,,,,,,,,,,,,,,,,,,,,,,,,,,,,,,263.69087990000116,263.69087990000116,num_1,3.333064500002365,,,,,,Vojta,001,2023-12-15_11h41.36.213,game,2022.2.5,60.8736463981828,
,,,,5,0,5,0,,,,,,,,,,,,,,,,,,,,,,,,,,,,,,,,,,,,,,,,,,,,,267.42431959999885,267.42431959999885,num_6,8.573517400000128,,,,,,Vojta,001,2023-12-15_11h41.36.213,game,2022.2.5,60.8736463981828,
,,,,6,0,6,0,,,,,,,,,,,,,,,,,,,,,,,,,,,,,,,,,,,,,,,,,,,,,276.40875790000064,276.40875790000064,num_1,2.2135127000037755,,,,,,Vojta,001,2023-12-15_11h41.36.213,game,2022.2.5,60.8736463981828,
,,,,7,0,7,0,,,,,,,,,,,,,,,,,,,,,,,,,,,,,,,,,,,,,,,,,,,,,279.02288319999934,279.02288319999934,num_9,2.303600799998094,,,,,,Vojta,001,2023-12-15_11h41.36.213,game,2022.2.5,60.8736463981828,
,,,,8,0,8,0,,,,,,,,,,,,,,,,,,,,,,,,,,,,,,,,,,,,,,,,,,,,,281.7567053999992,281.7567053999992,num_4,6.049224599999434,,,,,,Vojta,001,2023-12-15_11h41.36.213,game,2022.2.5,60.8736463981828,
,,,,9,0,9,0,,,,,,,,,,,,,,,,,,,,,,,,,,,,,,,,,,,,,,,,,,,,,288.22650649999923,288.22650649999923,num_0,2.195521200002986,,,,,,Vojta,001,2023-12-15_11h41.36.213,game,2022.2.5,60.8736463981828,
,,,,10,0,10,0,,,,,,,,,,,,,,,,,,,,,,,,,,,,,,,,,,,,,,,,,,,,,290.8569905000004,290.8569905000004,num_1,3.541458200001216,,,,,,Vojta,001,2023-12-15_11h41.36.213,game,2022.2.5,60.8736463981828,
,,,,11,0,11,0,,,,,,,,,,,,,,,,,,,,,,,,,,,,,,,,,,,,,,,,,,,,,294.7910359999987,294.7910359999987,num_7,5.534961100001965,,,,,,Vojta,001,2023-12-15_11h41.36.213,game,2022.2.5,60.8736463981828,
,,,,12,0,12,0,,,,,,,,,,,,,,,,,,,,,,,,,,,,,,,,,,,,,,,,,,,,,300.68932190000123,300.68932190000123,num_9,2.0367580999991333,,,,,,Vojta,001,2023-12-15_11h41.36.213,game,2022.2.5,60.8736463981828,
,,,,13,0,13,0,,,,,,,,,,,,,,,,,,,,,,,,,,,,,,,,,,,,,,,,,,,,,303.107295400001,303.107295400001,num_3,1.6361018999996304,,,,,,Vojta,001,2023-12-15_11h41.36.213,game,2022.2.5,60.8736463981828,
,,,,14,0,14,0,,,,,,,,,,,,,,,,,,,,,,,,,,,,,,,,,,,,,,,,,,,,,305.2256161000005,305.2256161000005,num_9,5.71719099999973,,,,,,Vojta,001,2023-12-15_11h41.36.213,game,2022.2.5,60.8736463981828,
,,,,15,0,15,0,,,,,,,,,,,,,,,,,,,,,,,,,,,,,,,,,,,,,,,,,,,,,311.3402500000011,311.3402500000011,num_2,2.633964800003014,,,,,,Vojta,001,2023-12-15_11h41.36.213,game,2022.2.5,60.8736463981828,
,,,,16,0,16,0,,,,,,,,,,,,,,,,,,,,,,,,,,,,,,,,,,,,,,,,,,,,,314.3720347999988,314.3720347999988,num_6,1.1552880999988702,,,,,,Vojta,001,2023-12-15_11h41.36.213,game,2022.2.5,60.8736463981828,
,,,,17,0,17,0,,,,,,,,,,,,,,,,,,,,,,,,,,,,,,,,,,,,,,,,,,,,,315.9065692000004,315.9065692000004,num_7,2.70800650000092,,,,,,Vojta,001,2023-12-15_11h41.36.213,game,2022.2.5,60.8736463981828,
,,,,18,0,18,0,,,,,,,,,,,,,,,,,,,,,,,,,,,,,,,,,,,,,,,,,,,,,319.1093734999995,319.1093734999995,num_9,2.0012686000009126,,,,,,Vojta,001,2023-12-15_11h41.36.213,game,2022.2.5,60.8736463981828,
,,,,19,0,19,0,,,,,,,,,,,,,,,,,,,,,,,,,,,,,,,,,,,,,,,,,,,,,321.4704625000013,321.4704625000013,num_0,1.5756627000009757,,,,,,Vojta,001,2023-12-15_11h41.36.213,game,2022.2.5,60.8736463981828,
,,,,20,0,20,0,,,,,,,,,,,,,,,,,,,,,,,,,,,,,,,,,,,,,,,,,,,,,323.43839930000104,323.43839930000104,num_1,5.6401122999996005,,,,,,Vojta,001,2023-12-15_11h41.36.213,game,2022.2.5,60.8736463981828,
,,,,21,0,21,0,,,,,,,,,,,,,,,,,,,,,,,,,,,,,,,,,,,,,,,,,,,,,329.4532870000003,329.4532870000003,num_5,2.0995937999978196,,,,,,Vojta,001,2023-12-15_11h41.36.213,game,2022.2.5,60.8736463981828,
,,,,22,0,22,0,,,,,,,,,,,,,,,,,,,,,,,,,,,,,,,,,,,,,,,,,,,,,331.9709857000016,331.9709857000016,num_8,3.6438280000038503,,,,,,Vojta,001,2023-12-15_11h41.36.213,game,2022.2.5,60.8736463981828,
,,,,23,0,23,0,,,,,,,,,,,,,,,,,,,,,,,,,,,,,,,,,,,,,,,,,,,,,336.1248196999986,336.1248196999986,num_7,2.0580774000009114,,,,,,Vojta,001,2023-12-15_11h41.36.213,game,2022.2.5,60.8736463981828,
,,,,24,0,24,0,,,,,,,,,,,,,,,,,,,,,,,,,,,,,,,,,,,,,,,,,,,,,338.62109280000004,338.62109280000004,num_5,1.8490142000009655,,,,,,Vojta,001,2023-12-15_11h41.36.213,game,2022.2.5,60.8736463981828,
,,,,25,0,25,0,,,,,,,,,,,,,,,,,,,,,,,,,,,,,,,,,,,,,,,,,,,,,340.8709659999986,340.8709659999986,num_2,2.639330699999846,,,,,,Vojta,001,2023-12-15_11h41.36.213,game,2022.2.5,60.8736463981828,
,,,,26,0,26,0,,,,,,,,,,,,,,,,,,,,,,,,,,,,,,,,,,,,,,,,,,,,,343.92021079999904,343.92021079999904,num_6,1.6462175000015122,,,,,,Vojta,001,2023-12-15_11h41.36.213,game,2022.2.5,60.8736463981828,
,,,,27,0,27,0,,,,,,,,,,,,,,,,,,,,,,,,,,,,,,,,,,,,,,,,,,,,,345.9704133000014,345.9704133000014,num_7,5.260836400000699,,,,,,Vojta,001,2023-12-15_11h41.36.213,game,2022.2.5,60.8736463981828,
,,,,28,0,28,0,,,,,,,,,,,,,,,,,,,,,,,,,,,,,,,,,,,,,,,,,,,,,351.6027205999999,351.6027205999999,num_7,2.6114412999995693,,,,,,Vojta,001,2023-12-15_11h41.36.213,game,2022.2.5,60.8736463981828,
,,,,29,0,29,0,,,,,,,,,,,,,,,,,,,,,,,,,,,,,,,,,,,,,,,,,,,,,354.5851651000012,354.5851651000012,num_9,1.2851995999990322,,,,,,Vojta,001,2023-12-15_11h41.36.213,game,2022.2.5,60.8736463981828,
,,,,30,0,30,0,,,,,,,,,,,,,,,,,,,,,,,,,,,,,,,,,,,,,,,,,,,,,356.26973740000176,356.26973740000176,num_6,3.0808752000011737,,,,,,Vojta,001,2023-12-15_11h41.36.213,game,2022.2.5,60.8736463981828,
,,,,31,0,31,0,,,,,,,,,,,,,,,,,,,,,,,,,,,,,,,,,,,,,,,,,,,,,359.75393149999945,359.75393149999945,num_7,5.285302300002513,,,,,,Vojta,001,2023-12-15_11h41.36.213,game,2022.2.5,60.8736463981828,
,,,,32,0,32,0,,,,,,,,,,,,,,,,,,,,,,,,,,,,,,,,,,,,,,,,,,,,,365.4353067000011,365.4353067000011,num_8,3.243353300003946,,,,,,Vojta,001,2023-12-15_11h41.36.213,game,2022.2.5,60.8736463981828,
,,,,33,0,33,0,,,,,,,,,,,,,,,,,,,,,,,,,,,,,,,,,,,,,,,,,,,,,369.0870528000014,369.0870528000014,num_6,3.151838800000405,,,,,,Vojta,001,2023-12-15_11h41.36.213,game,2022.2.5,60.8736463981828,
,,,,34,0,34,0,,,,,,,,,,,,,,,,,,,,,,,,,,,,,,,,,,,,,,,,,,,,,372.6191851000003,372.6191851000003,num_9,5.611430699998891,,,,,,Vojta,001,2023-12-15_11h41.36.213,game,2022.2.5,60.8736463981828,
,,,,35,0,35,0,,,,,,,,,,,,,,,,,,,,,,,,,,,,,,,,,,,,,,,,,,,,,378.6010611999991,378.6010611999991,num_7,9.51743510000233,,,,,,Vojta,001,2023-12-15_11h41.36.213,game,2022.2.5,60.8736463981828,
,,,,36,0,36,0,,,,,,,,,,,,,,,,,,,,,,,,,,,,,,,,,,,,,,,,,,,,,388.5188664999987,388.5188664999987,num_5,1.8237805000026128,,,,,,Vojta,001,2023-12-15_11h41.36.213,game,2022.2.5,60.8736463981828,
,,,,,,,,,,,,,,,,,,,,,,,,,,,,,,,,,,,,,,,,,,,,,,,,,,,,,,,,1479.2766029000013,1479.2766029000013,space,234.4769965000014,,Vojta,001,2023-12-15_11h41.36.213,game,2022.2.5,60.8736463981828,
,,,,,,,,,,,,,,,,,,,,,,,,,,,,,,1713.782770400001,1713.782770400001,space,9.840296300000773,,,,,,,,,,,,,,,,,,,,,,,,,,,,Vojta,001,2023-12-15_11h41.36.213,game,2022.2.5,60.8736463981828,
,,,,,,,,0,0,0,0,,,,,,,,,,,,,,,,,,,,,,,1,1723.650308799999,1723.650308799999,1723.650308799999,1724.6640714999994,None,1724.6640714999994,1724.6640714999994,1,414.6649000031175,space,0.4146649000031175,1725.1471171000012,1725.6505823000007,,,,,,,,,,,,,,Vojta,001,2023-12-15_11h41.36.213,game,2022.2.5,60.8736463981828,
,,,,,,,,1,0,1,0,,,,,,,,,,,,,,,,,,,,,,,4,1725.6505823000007,1725.6505823000007,1728.673619000001,1729.6770391999999,None,1729.6770391999999,1729.6770391999999,1,289.6987000021909,space,0.2896987000021909,1729.9980275999987,1730.4965875000016,,,,,,,,,,,,,,Vojta,001,2023-12-15_11h41.36.213,game,2022.2.5,60.8736463981828,
,,,,,,,,2,0,2,0,,,,,,,,,,,,,,,,,,,,,,,3,1730.4965875000016,1730.4965875000016,1732.4977165000018,1733.5139151000003,None,1733.5139151000003,1733.5139151000003,1,324.7723999993468,space,0.3247723999993468,1733.8956786999988,1734.4093207000005,,,,,,,,,,,,,,Vojta,001,2023-12-15_11h41.36.213,game,2022.2.5,60.8736463981828,
,,,,,,,,3,0,3,0,,,,,,,,,,,,,,,,,,,,,,,2,1734.4093207000005,1734.4093207000005,1735.415637099999,1736.4113371999993,None,1736.4113371999993,1736.4113371999993,1,315.43650000094203,space,0.31543650000094203,1736.7602879000005,1737.2620972000004,,,,,,,,,,,,,,Vojta,001,2023-12-15_11h41.36.213,game,2022.2.5,60.8736463981828,
,,,,,,,,4,0,4,0,,,,,,,,,,,,,,,,,,,,,,,1,1737.2620972000004,1737.2620972000004,1737.2620972000004,1738.2787448999989,None,1738.2787448999989,1738.2787448999989,1,329.7946000020602,space,0.3297946000020602,1738.645528000001,1739.1465132000012,,,,,,,,,,,,,,Vojta,001,2023-12-15_11h41.36.213,game,2022.2.5,60.8736463981828,
,,,,,,,,5,0,5,0,,,,,,,,,,,,,,,,,,,,,,,3,1739.1465132000012,1739.1465132000012,1741.1460184999996,1742.1591509999998,None,1742.1591509999998,1742.1591509999998,1,313.0133999984537,space,0.3130133999984537,1742.5102423999997,1743.0121927,,,,,,,,,,,,,,Vojta,001,2023-12-15_11h41.36.213,game,2022.2.5,60.8736463981828,
,,,,,,,,6,0,6,0,,,,,,,,,,,,,,,,,,,,,,,3,1743.0121927,1743.0121927,1745.0280590000002,1746.0281618000008,None,1746.0281618000008,1746.0281618000008,1,315.10090000301716,space,0.31510090000301716,1746.394353399999,1746.8955209999986,,,,,,,,,,,,,,Vojta,001,2023-12-15_11h41.36.213,game,2022.2.5,60.8736463981828,
,,,,,,,,7,0,7,0,,,,,,,,,,,,,,,,,,,,,,,2,1746.8955209999986,1746.8955209999986,1747.895712900001,1748.929100100002,None,1748.929100100002,1748.929100100002,1,301.6962000001513,space,0.3016962000001513,1749.2771887999988,1749.777624800001,,,,,,,,,,,,,,Vojta,001,2023-12-15_11h41.36.213,game,2022.2.5,60.8736463981828,
,,,,,,,,8,0,8,0,,,,,,,,,,,,,,,,,,,,,,,2,1749.777624800001,1749.777624800001,1750.7786620000006,1751.7925499000012,None,1751.7925499000012,1751.7925499000012,1,286.79469999769935,space,0.28679469999769935,1752.1258794999994,1752.644438700001,,,,,,,,,,,,,,Vojta,001,2023-12-15_11h41.36.213,game,2022.2.5,60.8736463981828,
,,,,,,,,9,0,9,0,,,,,,,,,,,,,,,,,,,,,,,2,1752.644438700001,1752.644438700001,1753.6436482999998,1754.6454421999988,None,1754.6454421999988,1754.6454421999988,1,290.78990000198246,space,0.29078990000198246,1754.9620498000004,1755.4639400999986,,,,,,,,,,,,,,Vojta,001,2023-12-15_11h41.36.213,game,2022.2.5,60.8736463981828,
,,,,,,,,10,0,10,0,,,,,,,,,,,,,,,,,,,,,,,4,1755.4639400999986,1755.4639400999986,1758.4801795000021,1759.4776882000006,None,1759.4776882000006,1759.4776882000006,1,305.66320000070846,space,0.30566320000070846,1759.8968993000017,1760.4292987000008,,,,,,,,,,,,,,Vojta,001,2023-12-15_11h41.36.213,game,2022.2.5,60.8736463981828,
,,,,,,,,11,0,11,0,,,,,,,,,,,,,,,,,,,,,,,2,1760.4292987000008,1760.4292987000008,1761.4317905999997,1762.4430108999986,None,1762.4430108999986,1762.4430108999986,1,316.0959000015282,space,0.3160959000015282,1762.791178399999,1763.2937592000017,,,,,,,,,,,,,,Vojta,001,2023-12-15_11h41.36.213,game,2022.2.5,60.8736463981828,
,,,,,,,,12,0,12,0,,,,,,,,,,,,,,,,,,,,,,,2,1763.2937592000017,1763.2937592000017,1764.3150042000016,1765.308531300001,None,1765.308531300001,1765.308531300001,1,322.91500000064843,space,0.32291500000064843,1765.6740979999995,1766.1781511000008,,,,,,,,,,,,,,Vojta,001,2023-12-15_11h41.36.213,game,2022.2.5,60.8736463981828,
,,,,,,,,13,0,13,0,,,,,,,,,,,,,,,,,,,,,,,4,1766.1781511000008,1766.1781511000008,1769.1809208000013,1770.207864600001,None,1770.207864600001,1770.207864600001,1,295.802000000549,space,0.295802000000549,1770.5416355999987,1771.061706200002,,,,,,,,,,,,,,Vojta,001,2023-12-15_11h41.36.213,game,2022.2.5,60.8736463981828,
,,,,,,,,14,0,14,0,,,,,,,,,,,,,,,,,,,,,,,4,1771.061706200002,1771.061706200002,1774.06106,,None,,,0,nan,None,,1779.1115118999987,1779.6430719000018,,,,,,,,,,,,,,Vojta,001,2023-12-15_11h41.36.213,game,2022.2.5,60.8736463981828,
,,,,,,,,15,0,15,0,,,,,,,,,,,,,,,,,,,,,,,4,1779.6430719000018,1779.6430719000018,1782.645035900001,1783.65855,None,1783.65855,1783.65855,1,301.20930000339285,space,0.30120930000339285,1783.9899293999988,1784.4939130999992,,,,,,,,,,,,,,Vojta,001,2023-12-15_11h41.36.213,game,2022.2.5,60.8736463981828,
,,,,,,,,16,0,16,0,,,,,,,,,,,,,,,,,,,,,,,2,1784.4939130999992,1784.4939130999992,1785.5282392000008,1786.494186,None,1786.494186,1786.494186,1,305.2472999988822,space,0.3052472999988822,1786.8409342000014,1787.3593585000017,,,,,,,,,,,,,,Vojta,001,2023-12-15_11h41.36.213,game,2022.2.5,60.8736463981828,
,,,,,,,,17,0,17,0,,,,,,,,,,,,,,,,,,,,,,,1,1787.3593585000017,1787.3593585000017,1787.3593585000017,1788.3605061000017,None,1788.3605061000017,1788.3605061000017,1,575.1880000025267,space,0.5751880000025267,1788.973340200002,1789.4773521999996,,,,,,,,,,,,,,Vojta,001,2023-12-15_11h41.36.213,game,2022.2.5,60.8736463981828,
,,,,,,,,18,0,18,0,,,,,,,,,,,,,,,,,,,,,,,2,1789.4773521999996,1789.4773521999996,1790.4769754000008,1791.4910348000012,None,1791.4910348000012,1791.4910348000012,1,349.11730000021635,space,0.34911730000021635,1791.8746266000016,1792.3789001000005,,,,,,,,,,,,,,Vojta,001,2023-12-15_11h41.36.213,game,2022.2.5,60.8736463981828,
,,,,,,,,19,0,19,0,,,,,,,,,,,,,,,,,,,,,,,1,1792.3789001000005,1792.3789001000005,1792.3789001000005,1793.392293500001,None,1793.392293500001,1793.392293500001,1,318.71330000285525,space,0.31871330000285525,1793.7404208000007,1794.2417845000018,,,,,,,,,,,,,,Vojta,001,2023-12-15_11h41.36.213,game,2022.2.5,60.8736463981828,
,,,,,,,,20,0,20,0,,,,,,,,,,,,,,,,,,,,,,,4,1794.2417845000018,1794.2417845000018,1797.2439962999997,1798.2587181000017,None,1798.2587181000017,1798.2587181000017,1,326.055900000938,space,0.326055900000938,1798.6971220000014,1799.2252100000005,,,,,,,,,,,,,,Vojta,001,2023-12-15_11h41.36.213,game,2022.2.5,60.8736463981828,
,,,,,,,,21,0,21,0,,,,,,,,,,,,,,,,,,,,,,,3,1799.2252100000005,1799.2252100000005,1801.226307500001,1802.2400110000017,None,1802.2400110000017,1802.2400110000017,1,311.5533000018331,space,0.3115533000018331,1802.5899366000012,1803.0925825000013,,,,,,,,,,,,,,Vojta,001,2023-12-15_11h41.36.213,game,2022.2.5,60.8736463981828,
,,,,,,,,22,0,22,0,,,,,,,,,,,,,,,,,,,,,,,2,1803.0925825000013,1803.0925825000013,1804.0920969,1805.1260272,None,1805.1260272,1805.1260272,1,306.9993999997678,space,0.3069993999997678,1805.4921427000008,1805.997145100002,,,,,,,,,,,,,,Vojta,001,2023-12-15_11h41.36.213,game,2022.2.5,60.8736463981828,
,,,,,,,,23,0,23,0,,,,,,,,,,,,,,,,,,,,,,,3,1805.997145100002,1805.997145100002,1808.0129966999993,1809.0430330999989,None,1809.0430330999989,1809.0430330999989,1,325.1098000037018,space,0.3251098000037018,1809.4053698999996,1809.924180599999,,,,,,,,,,,,,,Vojta,001,2023-12-15_11h41.36.213,game,2022.2.5,60.8736463981828,
,,,,,,,,24,0,24,0,,,,,,,,,,,,,,,,,,,,,,,4,1809.924180599999,1809.924180599999,1812.9246206999997,1813.939069,None,1813.939069,1813.939069,1,300.48680000254535,space,0.30048680000254535,1814.2731946999993,1814.7911415999988,,,,,,,,,,,,,,Vojta,001,2023-12-15_11h41.36.213,game,2022.2.5,60.8736463981828,
,,,,,,,,25,0,25,0,,,,,,,,,,,,,,,,,,,,,,,3,1814.7911415999988,1814.7911415999988,1816.7920268000016,1817.8617263999986,None,1817.8617263999986,1817.8617263999986,1,330.1312000003236,space,0.3301312000003236,1818.2412994000006,1818.7420395000008,,,,,,,,,,,,,,Vojta,001,2023-12-15_11h41.36.213,game,2022.2.5,60.8736463981828,
,,,,,,,,26,0,26,0,,,,,,,,,,,,,,,,,,,,,,,2,1818.7420395000008,1818.7420395000008,1819.7624934000014,1820.7563192000016,None,1820.7563192000016,1820.7563192000016,1,299.3821000018215,space,0.2993821000018215,1821.0891037000001,1821.591636699999,,,,,,,,,,,,,,Vojta,001,2023-12-15_11h41.36.213,game,2022.2.5,60.8736463981828,
,,,,,,,,27,0,27,0,,,,,,,,,,,,,,,,,,,,,,,3,1821.591636699999,1821.591636699999,1823.5948782999985,1824.642656600001,None,1824.642656600001,1824.642656600001,1,301.0376999991422,space,0.3010376999991422,1824.974166600001,1825.4886613999988,,,,,,,,,,,,,,Vojta,001,2023-12-15_11h41.36.213,game,2022.2.5,60.8736463981828,
,,,,,,,,28,0,28,0,,,,,,,,,,,,,,,,,,,,,,,2,1825.4886613999988,1825.4886613999988,1826.5119178999994,1827.4935903000005,None,1827.4935903000005,1827.4935903000005,1,306.3720000027388,space,0.3063720000027388,1827.8381883000002,1828.3784747999998,,,,,,,,,,,,,,Vojta,001,2023-12-15_11h41.36.213,game,2022.2.5,60.8736463981828,
,,,,,,,,29,0,29,0,,,,,,,,,,,,,,,,,,,,,,,4,1828.3784747999998,1828.3784747999998,1831.3771516999986,1832.3919257000016,None,1832.3919257000016,1832.3919257000016,1,319.45899999846006,space,0.31945899999846006,1832.7386633999995,1833.2423731999988,,,,,,,,,,,,,,Vojta,001,2023-12-15_11h41.36.213,game,2022.2.5,60.8736463981828,
,,,,,,,,30,0,30,0,,,,,,,,,,,,,,,,,,,,,,,3,1833.2423731999988,1833.2423731999988,1835.2417972000003,1836.2413884000016,None,1836.2413884000016,1836.2413884000016,1,310.2569000002404,space,0.3102569000002404,1836.588126300001,1837.107138899999,,,,,,,,,,,,,,Vojta,001,2023-12-15_11h41.36.213,game,2022.2.5,60.8736463981828,
,,,,,,,,31,0,31,0,,,,,,,,,,,,,,,,,,,,,,,2,1837.107138899999,1837.107138899999,1838.1073260000012,1839.1231947000015,None,1839.1231947000015,1839.1231947000015,1,404.5263000007253,space,0.4045263000007253,1839.5922261000014,1840.1071813000017,,,,,,,,,,,,,,Vojta,001,2023-12-15_11h41.36.213,game,2022.2.5,60.8736463981828,
,,,,,,,,32,0,32,0,,,,,,,,,,,,,,,,,,,,,,,3,1840.1071813000017,1840.1071813000017,1842.107463799999,1843.1205426000015,None,1843.1205426000015,1843.1205426000015,1,303.1618000022718,space,0.3031618000022718,1843.455627200001,1843.9725685000012,,,,,,,,,,,,,,Vojta,001,2023-12-15_11h41.36.213,game,2022.2.5,60.8736463981828,
,,,,,,,,33,0,33,0,,,,,,,,,,,,,,,,,,,,,,,1,1843.9725685000012,1843.9725685000012,1843.9725685000012,1844.9748218999994,None,1844.9748218999994,1844.9748218999994,1,361.06240000299294,space,0.36106240000299294,1845.3707824000012,1845.872384000002,,,,,,,,,,,,,,Vojta,001,2023-12-15_11h41.36.213,game,2022.2.5,60.8736463981828,
,,,,,,,,34,0,34,0,,,,,,,,,,,,,,,,,,,,,,,2,1845.872384000002,1845.872384000002,1846.873101600002,1847.8726754999989,None,1847.8726754999989,1847.8726754999989,1,302.84150000079535,space,0.30284150000079535,1848.2028711999992,1848.7062463000002,,,,,,,,,,,,,,Vojta,001,2023-12-15_11h41.36.213,game,2022.2.5,60.8736463981828,
,,,,,,,,35,0,35,0,,,,,,,,,,,,,,,,,,,,,,,2,1848.7062463000002,1848.7062463000002,1849.7074040000007,1850.7204825000008,None,1850.7204825000008,1850.7204825000008,1,303.55469999994966,space,0.30355469999994966,1851.072435500002,1851.6068866999994,,,,,,,,,,,,,,Vojta,001,2023-12-15_11h41.36.213,game,2022.2.5,60.8736463981828,
,,,,,,,,36,0,36,0,,,,,,,,,,,,,,,,,,,,,,,4,1851.6068866999994,1851.6068866999994,1854.6076619999985,1855.622292,None,1855.622292,1855.622292,1,337.4273000008543,space,0.3374273000008543,1855.9890449000013,1856.4918116000008,,,,,,,,,,,,,,Vojta,001,2023-12-15_11h41.36.213,game,2022.2.5,60.8736463981828,
,,,,,,,,37,0,37,0,,,,,,,,,,,,,,,,,,,,,,,1,1856.4918116000008,1856.4918116000008,1856.4918116000008,1857.5024502000015,None,1857.5024502000015,1857.5024502000015,1,369.4705000016256,space,0.3694705000016256,1857.991477399999,1858.522422099999,,,,,,,,,,,,,,Vojta,001,2023-12-15_11h41.36.213,game,2022.2.5,60.8736463981828,
,,,,,,,,38,0,38,0,,,,,,,,,,,,,,,,,,,,,,,2,1858.522422099999,1858.522422099999,,,None,,,0,nan,None,,1863.505024099999,1864.004409000001,,,,,,,,,,,,,,Vojta,001,2023-12-15_11h41.36.213,game,2022.2.5,60.8736463981828,
,,,,,,,,39,0,39,0,,,,,,,,,,,,,,,,,,,,,,,2,1864.004409000001,1864.004409000001,1865.0050149000017,1866.0217770000017,None,1866.0217770000017,1866.0217770000017,1,402.25769999960903,space,0.40225769999960903,1866.4896426999985,1867.0031548000006,,,,,,,,,,,,,,Vojta,001,2023-12-15_11h41.36.213,game,2022.2.5,60.8736463981828,
,,,,,,,,40,0,40,0,,,,,,,,,,,,,,,,,,,,,,,3,1867.0031548000006,1867.0031548000006,1869.006375699999,1870.0216948999987,None,1870.0216948999987,1870.0216948999987,1,306.15649999890593,space,0.30615649999890593,1870.4404281999996,1870.954830999999,,,,,,,,,,,,,,Vojta,001,2023-12-15_11h41.36.213,game,2022.2.5,60.8736463981828,
,,,,,,,,41,0,41,0,,,,,,,,,,,,,,,,,,,,,,,1,1870.954830999999,1870.954830999999,1870.954830999999,1871.9574641,None,1871.9574641,1871.9574641,1,346.50129999863566,space,0.34650129999863566,1872.3366558999987,1872.838234499999,,,,,,,,,,,,,,Vojta,001,2023-12-15_11h41.36.213,game,2022.2.5,60.8736463981828,
,,,,,,,,42,0,42,0,,,,,,,,,,,,,,,,,,,,,,,3,1872.838234499999,1872.838234499999,1874.839549299999,1875.8541726000003,None,1875.8541726000003,1875.8541726000003,1,337.49830000306247,space,0.33749830000306247,1876.220801800002,1876.7220491000007,,,,,,,,,,,,,,Vojta,001,2023-12-15_11h41.36.213,game,2022.2.5,60.8736463981828,
,,,,,,,,,,,,,,,,,,,,,,,,,,,,,,,,,,,,,,,,,,,,,,,,1876.7220491000007,1876.7220491000007,space,13.541684000003443,,,,,,,,,,Vojta,001,2023-12-15_11h41.36.213,game,2022.2.5,60.8736463981828,
,,,,,,,,,,,,0,0,0,0,,,,,,,,,,,,,,,,,,,,,,,,,,,,,,,,,,,,,1890.3038793999986,1890.3038793999986,num_8,2.1198920000024373,,,,,,Vojta,001,2023-12-15_11h41.36.213,game,2022.2.5,60.8736463981828,
,,,,,,,,,,,,1,0,1,0,,,,,,,,,,,,,,,,,,,,,,,,,,,,,,,,,,,,,1892.8534064000014,1892.8534064000014,num_1,2.947431000000506,,,,,,Vojta,001,2023-12-15_11h41.36.213,game,2022.2.5,60.8736463981828,
,,,,,,,,,,,,2,0,2,0,,,,,,,,,,,,,,,,,,,,,,,,,,,,,,,,,,,,,1896.1862352999997,1896.1862352999997,num_2,1.6458584000029077,,,,,,Vojta,001,2023-12-15_11h41.36.213,game,2022.2.5,60.8736463981828,
,,,,,,,,,,,,3,0,3,0,,,,,,,,,,,,,,,,,,,,,,,,,,,,,,,,,,,,,1898.2374213000003,1898.2374213000003,num_7,2.2598010000001523,,,,,,Vojta,001,2023-12-15_11h41.36.213,game,2022.2.5,60.8736463981828,
,,,,,,,,,,,,4,0,4,0,,,,,,,,,,,,,,,,,,,,,,,,,,,,,,,,,,,,,1900.8685890999986,1900.8685890999986,num_0,9.011253700002271,,,,,,Vojta,001,2023-12-15_11h41.36.213,game,2022.2.5,60.8736463981828,
,,,,,,,,,,,,5,0,5,0,,,,,,,,,,,,,,,,,,,,,,,,,,,,,,,,,,,,,1910.2860619999992,1910.2860619999992,num_6,6.258514299999661,,,,,,Vojta,001,2023-12-15_11h41.36.213,game,2022.2.5,60.8736463981828,
,,,,,,,,,,,,6,0,6,0,,,,,,,,,,,,,,,,,,,,,,,,,,,,,,,,,,,,,1916.986445300001,1916.986445300001,num_3,5.205610000000888,,,,,,Vojta,001,2023-12-15_11h41.36.213,game,2022.2.5,60.8736463981828,
,,,,,,,,,,,,7,0,7,0,,,,,,,,,,,,,,,,,,,,,,,,,,,,,,,,,,,,,1922.5691345999985,1922.5691345999985,num_4,1.9994589000016276,,,,,,Vojta,001,2023-12-15_11h41.36.213,game,2022.2.5,60.8736463981828,
,,,,,,,,,,,,8,0,8,0,,,,,,,,,,,,,,,,,,,,,,,,,,,,,,,,,,,,,1924.952899,1924.952899,num_7,5.023774200002663,,,,,,Vojta,001,2023-12-15_11h41.36.213,game,2022.2.5,60.8736463981828,
,,,,,,,,,,,,9,0,9,0,,,,,,,,,,,,,,,,,,,,,,,,,,,,,,,,,,,,,1930.3682025999988,1930.3682025999988,num_5,4.056175300000177,,,,,,Vojta,001,2023-12-15_11h41.36.213,game,2022.2.5,60.8736463981828,
,,,,,,,,,,,,10,0,10,0,,,,,,,,,,,,,,,,,,,,,,,,,,,,,,,,,,,,,1934.799769199999,1934.799769199999,num_7,7.360600100000738,,,,,,Vojta,001,2023-12-15_11h41.36.213,game,2022.2.5,60.8736463981828,
,,,,,,,,,,,,11,0,11,0,,,,,,,,,,,,,,,,,,,,,,,,,,,,,,,,,,,,,1942.5163217000008,1942.5163217000008,num_9,5.772080599999754,,,,,,Vojta,001,2023-12-15_11h41.36.213,game,2022.2.5,60.8736463981828,
,,,,,,,,,,,,12,0,12,0,,,,,,,,,,,,,,,,,,,,,,,,,,,,,,,,,,,,,1948.7013294999997,1948.7013294999997,num_5,2.986846499999956,,,,,,Vojta,001,2023-12-15_11h41.36.213,game,2022.2.5,60.8736463981828,
,,,,,,,,,,,,13,0,13,0,,,,,,,,,,,,,,,,,,,,,,,,,,,,,,,,,,,,,1952.0674561000014,1952.0674561000014,num_1,2.940969100000075,,,,,,Vojta,001,2023-12-15_11h41.36.213,game,2022.2.5,60.8736463981828,
,,,,,,,,,,,,14,0,14,0,,,,,,,,,,,,,,,,,,,,,,,,,,,,,,,,,,,,,1955.4490348,1955.4490348,num_3,2.8073476999998093,,,,,,Vojta,001,2023-12-15_11h41.36.213,game,2022.2.5,60.8736463981828,
,,,,,,,,,,,,15,0,15,0,,,,,,,,,,,,,,,,,,,,,,,,,,,,,,,,,,,,,1958.6660001000018,1958.6660001000018,num_6,2.5424511000019265,,,,,,Vojta,001,2023-12-15_11h41.36.213,game,2022.2.5,60.8736463981828,
,,,,,,,,,,,,16,0,16,0,,,,,,,,,,,,,,,,,,,,,,,,,,,,,,,,,,,,,1961.617341000001,1961.617341000001,num_3,1.6472662999985914,,,,,,Vojta,001,2023-12-15_11h41.36.213,game,2022.2.5,60.8736463981828,
,,,,,,,,,,,,17,0,17,0,,,,,,,,,,,,,,,,,,,,,,,,,,,,,,,,,,,,,1963.7008386999987,1963.7008386999987,num_9,3.6522126000018034,,,,,,Vojta,001,2023-12-15_11h41.36.213,game,2022.2.5,60.8736463981828,
,,,,,,,,,,,,18,0,18,0,,,,,,,,,,,,,,,,,,,,,,,,,,,,,,,,,,,,,1967.7153024,1967.7153024,num_4,3.7812314000038896,,,,,,Vojta,001,2023-12-15_11h41.36.213,game,2022.2.5,60.8736463981828,
,,,,,,,,,,,,19,0,19,0,,,,,,,,,,,,,,,,,,,,,,,,,,,,,,,,,,,,,1971.9176068999986,1971.9176068999986,num_2,4.227181700000074,,,,,,Vojta,001,2023-12-15_11h41.36.213,game,2022.2.5,60.8736463981828,
,,,,,,,,,,,,20,0,20,0,,,,,,,,,,,,,,,,,,,,,,,,,,,,,,,,,,,,,1976.5804422,1976.5804422,num_7,1.9564156000014918,,,,,,Vojta,001,2023-12-15_11h41.36.213,game,2022.2.5,60.8736463981828,
,,,,,,,,,,,,21,0,21,0,,,,,,,,,,,,,,,,,,,,,,,,,,,,,,,,,,,,,1978.8813264000019,1978.8813264000019,num_8,8.910993900000904,,,,,,Vojta,001,2023-12-15_11h41.36.213,game,2022.2.5,60.8736463981828,
,,,,,,,,,,,,22,0,22,0,,,,,,,,,,,,,,,,,,,,,,,,,,,,,,,,,,,,,1988.215525399999,1988.215525399999,num_4,2.000802600003226,,,,,,Vojta,001,2023-12-15_11h41.36.213,game,2022.2.5,60.8736463981828,
,,,,,,,,,,,,23,0,23,0,,,,,,,,,,,,,,,,,,,,,,,,,,,,,,,,,,,,,1990.6308032000015,1990.6308032000015,num_1,4.377739300001849,,,,,,Vojta,001,2023-12-15_11h41.36.213,game,2022.2.5,60.8736463981828,
,,,,,,,,,,,,24,0,24,0,,,,,,,,,,,,,,,,,,,,,,,,,,,,,,,,,,,,,1995.4485080000013,1995.4485080000013,num_9,1.6323215999982494,,,,,,Vojta,001,2023-12-15_11h41.36.213,game,2022.2.5,60.8736463981828,
,,,,,,,,,,,,25,0,25,0,,,,,,,,,,,,,,,,,,,,,,,,,,,,,,,,,,,,,1997.498359600002,1997.498359600002,num_6,3.542577500000334,,,,,,Vojta,001,2023-12-15_11h41.36.213,game,2022.2.5,60.8736463981828,
,,,,,,,,,,,,26,0,26,0,,,,,,,,,,,,,,,,,,,,,,,,,,,,,,,,,,,,,2001.464551699999,2001.464551699999,num_3,2.7844881000019086,,,,,,Vojta,001,2023-12-15_11h41.36.213,game,2022.2.5,60.8736463981828,
,,,,,,,,,,,,27,0,27,0,,,,,,,,,,,,,,,,,,,,,,,,,,,,,,,,,,,,,2004.6629835999993,2004.6629835999993,num_4,3.4022880000011355,,,,,,Vojta,001,2023-12-15_11h41.36.213,game,2022.2.5,60.8736463981828,
,,,,,,,,,,,,28,0,28,0,,,,,,,,,,,,,,,,,,,,,,,,,,,,,,,,,,,,,2008.481489400001,2008.481489400001,num_7,5.856204899999284,,,,,,Vojta,001,2023-12-15_11h41.36.213,game,2022.2.5,60.8736463981828,
,,,,,,,,,,,,29,0,29,0,,,,,,,,,,,,,,,,,,,,,,,,,,,,,,,,,,,,,2014.8000920000013,2014.8000920000013,num_7,2.409906699998828,,,,,,Vojta,001,2023-12-15_11h41.36.213,game,2022.2.5,60.8736463981828,
,,,,,,,,,,,,30,0,30,0,,,,,,,,,,,,,,,,,,,,,,,,,,,,,,,,,,,,,2017.6116096000005,2017.6116096000005,num_1,3.229064899998775,,,,,,Vojta,001,2023-12-15_11h41.36.213,game,2022.2.5,60.8736463981828,
,,,,,,,,,,,,31,0,31,0,,,,,,,,,,,,,,,,,,,,,,,,,,,,,,,,,,,,,2021.2976417999998,2021.2976417999998,num_9,9.83928730000116,,,,,,Vojta,001,2023-12-15_11h41.36.213,game,2022.2.5,60.8736463981828,
,,,,,,,,,,,,32,0,32,0,,,,,,,,,,,,,,,,,,,,,,,,,,,,,,,,,,,,,2031.5300128999988,2031.5300128999988,num_2,4.439076099999511,,,,,,Vojta,001,2023-12-15_11h41.36.213,game,2022.2.5,60.8736463981828,
,,,,,,,,,,,,33,0,33,0,,,,,,,,,,,,,,,,,,,,,,,,,,,,,,,,,,,,,2036.5157354000003,2036.5157354000003,num_4,1.8371302000014111,,,,,,Vojta,001,2023-12-15_11h41.36.213,game,2022.2.5,60.8736463981828,
,,,,,,,,,,,,34,0,34,0,,,,,,,,,,,,,,,,,,,,,,,,,,,,,,,,,,,,,2038.7441714000015,2038.7441714000015,None,,,,,,,Vojta,001,2023-12-15_11h41.36.213,game,2022.2.5,60.8736463981828,
,,,,,,,,,,,,,,,,,,,,,,,,,,,,,,,,,,,,,,,,,,,,,,,,,,,,,,,,3064.157670200002,3064.157670200002,space,144.92773710000256,,Vojta,001,2023-12-15_11h41.36.213,game,2022.2.5,60.8736463981828,
,,,,,,,,,,,,,,,,,,,,,,,,,,,,,,3209.1305655999968,3209.1305655999968,space,4.349774800000887,,,,,,,,,,,,,,,,,,,,,,,,,,,,Vojta,001,2023-12-15_11h41.36.213,game,2022.2.5,60.8736463981828,
,,,,,,,,,,,,,,,,0,0,0,0,,,,,,,,,,,,,,,1,3213.513515999999,3213.513515999999,3213.513515999999,3214.5164175000027,None,3214.5164175000027,3214.5164175000027,1,300.2438000039547,space,0.3002438000039547,3214.8491810999985,3215.4025446000014,,,,,,,,,,,,,,Vojta,001,2023-12-15_11h41.36.213,game,2022.2.5,60.8736463981828,
,,,,,,,,,,,,,,,,1,0,1,0,,,,,,,,,,,,,,,1,3215.4025446000014,3215.4025446000014,3215.4025446000014,3216.4166981000017,None,3216.4166981000017,3216.4166981000017,1,335.31520000542514,space,0.33531520000542514,3216.779903100003,3217.297113599998,,,,,,,,,,,,,,Vojta,001,2023-12-15_11h41.36.213,game,2022.2.5,60.8736463981828,
,,,,,,,,,,,,,,,,2,0,2,0,,,,,,,,,,,,,,,4,3217.297113599998,3217.297113599998,3220.300143100001,3221.298852300002,None,3221.298852300002,3221.298852300002,1,325.69209999928717,space,0.32569209999928717,3221.6652734000018,3222.165690200003,,,,,,,,,,,,,,Vojta,001,2023-12-15_11h41.36.213,game,2022.2.5,60.8736463981828,
,,,,,,,,,,,,,,,,3,0,3,0,,,,,,,,,,,,,,,3,3222.165690200003,3222.165690200003,3224.167137299999,3225.1814825999973,None,3225.1814825999973,3225.1814825999973,1,290.94569999870146,space,0.29094569999870146,3225.5126002000034,3226.030722399999,,,,,,,,,,,,,,Vojta,001,2023-12-15_11h41.36.213,game,2022.2.5,60.8736463981828,
,,,,,,,,,,,,,,,,4,0,4,0,,,,,,,,,,,,,,,1,3226.030722399999,3226.030722399999,3226.030722399999,3227.0318552000026,None,3227.0318552000026,3227.0318552000026,1,344.3944999962696,space,0.3443944999962696,3227.4312353999994,3227.9482078,,,,,,,,,,,,,,Vojta,001,2023-12-15_11h41.36.213,game,2022.2.5,60.8736463981828,
,,,,,,,,,,,,,,,,5,0,5,0,,,,,,,,,,,,,,,1,3227.9482078,3227.9482078,3227.9482078,3228.9488103999975,None,3228.9488103999975,3228.9488103999975,1,285.03440000349656,space,0.28503440000349656,3229.264820199998,3229.7828461000026,,,,,,,,,,,,,,Vojta,001,2023-12-15_11h41.36.213,game,2022.2.5,60.8736463981828,
,,,,,,,,,,,,,,,,6,0,6,0,,,,,,,,,,,,,,,1,3229.7828461000026,3229.7828461000026,3229.7828461000026,3230.797471799997,None,3230.797471799997,3230.797471799997,1,282.5269000022672,space,0.2825269000022672,3231.129466999999,3231.646064499997,,,,,,,,,,,,,,Vojta,001,2023-12-15_11h41.36.213,game,2022.2.5,60.8736463981828,
,,,,,,,,,,,,,,,,7,0,7,0,,,,,,,,,,,,,,,4,3231.646064499997,3231.646064499997,3234.650858599998,3235.662577299998,None,3235.662577299998,3235.662577299998,1,290.0647000060417,space,0.2900647000060417,3235.9975945999977,3236.5161120999983,,,,,,,,,,,,,,Vojta,001,2023-12-15_11h41.36.213,game,2022.2.5,60.8736463981828,
,,,,,,,,,,,,,,,,8,0,8,0,,,,,,,,,,,,,,,4,3236.5161120999983,3236.5161120999983,3239.5360642000014,3240.5453030999997,None,3240.5453030999997,3240.5453030999997,1,320.21420000091894,space,0.32021420000091894,3240.912430700002,3241.413175300004,,,,,,,,,,,,,,Vojta,001,2023-12-15_11h41.36.213,game,2022.2.5,60.8736463981828,
,,,,,,,,,,,,,,,,9,0,9,0,,,,,,,,,,,,,,,4,3241.413175300004,3241.413175300004,3244.415807199999,3245.4305295000013,None,3245.4305295000013,3245.4305295000013,1,281.9247000006726,space,0.2819247000006726,3245.7636410999985,3246.265226299998,,,,,,,,,,,,,,Vojta,001,2023-12-15_11h41.36.213,game,2022.2.5,60.8736463981828,
,,,,,,,,,,,,,,,,10,0,10,0,,,,,,,,,,,,,,,2,3246.265226299998,3246.265226299998,3247.265820200002,3248.2772506000038,None,3248.2772506000038,3248.2772506000038,1,307.5803000028827,space,0.3075803000028827,3248.611620900003,3249.1144104999985,,,,,,,,,,,,,,Vojta,001,2023-12-15_11h41.36.213,game,2022.2.5,60.8736463981828,
,,,,,,,,,,,,,,,,11,0,11,0,,,,,,,,,,,,,,,4,3249.1144104999985,3249.1144104999985,3252.116039200002,3253.1453538999995,None,3253.1453538999995,3253.1453538999995,1,334.8744000031729,space,0.3348744000031729,3253.5133053000027,3254.015173699998,,,,,,,,,,,,,,Vojta,001,2023-12-15_11h41.36.213,game,2022.2.5,60.8736463981828,
,,,,,,,,,,,,,,,,12,0,12,0,,,,,,,,,,,,,,,2,3254.015173699998,3254.015173699998,3255.0486004999984,3256.0292904000016,None,3256.0292904000016,3256.0292904000016,1,299.13520000263816,space,0.29913520000263816,3256.361181,3256.8785639999987,,,,,,,,,,,,,,Vojta,001,2023-12-15_11h41.36.213,game,2022.2.5,60.8736463981828,
,,,,,,,,,,,,,,,,13,0,13,0,,,,,,,,,,,,,,,4,3256.8785639999987,3256.8785639999987,3259.880562600003,3260.8802443000022,None,3260.8802443000022,3260.8802443000022,1,305.4189000031329,space,0.3054189000031329,3261.228253699999,3261.7295663999976,,,,,,,,,,,,,,Vojta,001,2023-12-15_11h41.36.213,game,2022.2.5,60.8736463981828,
,,,,,,,,,,,,,,,,14,0,14,0,,,,,,,,,,,,,,,1,3261.7295663999976,3261.7295663999976,3261.7295663999976,3262.746734799999,None,3262.746734799999,3262.746734799999,1,326.74080000288086,space,0.32674080000288086,3263.167711599999,3263.6795967,,,,,,,,,,,,,,Vojta,001,2023-12-15_11h41.36.213,game,2022.2.5,60.8736463981828,
,,,,,,,,,,,,,,,,15,0,15,0,,,,,,,,,,,,,,,2,3263.6795967,3263.6795967,3264.679819500001,3265.6959185000014,None,3265.6959185000014,3265.6959185000014,1,321.6210999962641,space,0.3216210999962641,3266.059959500002,3266.564195799998,,,,,,,,,,,,,,Vojta,001,2023-12-15_11h41.36.213,game,2022.2.5,60.8736463981828,
,,,,,,,,,,,,,,,,16,0,16,0,,,,,,,,,,,,,,,1,3266.564195799998,3266.564195799998,3266.564195799998,3267.563745899999,None,3267.563745899999,3267.563745899999,1,325.55719999800203,space,0.32555719999800203,3267.9311613000027,3268.463241600002,,,,,,,,,,,,,,Vojta,001,2023-12-15_11h41.36.213,game,2022.2.5,60.8736463981828,
,,,,,,,,,,,,,,,,17,0,17,0,,,,,,,,,,,,,,,1,3268.463241600002,3268.463241600002,3268.463241600002,3269.4785066999975,None,3269.4785066999975,3269.4785066999975,1,299.094400004833,space,0.299094400004833,3269.8126701,3270.312724299998,,,,,,,,,,,,,,Vojta,001,2023-12-15_11h41.36.213,game,2022.2.5,60.8736463981828,
,,,,,,,,,,,,,,,,18,0,18,0,,,,,,,,,,,,,,,3,3270.312724299998,3270.312724299998,3272.3130843000035,3273.3458274000004,None,3273.3458274000004,3273.3458274000004,1,342.68580000207294,space,0.34268580000207294,3273.728876100002,3274.2303071999995,,,,,,,,,,,,,,Vojta,001,2023-12-15_11h41.36.213,game,2022.2.5,60.8736463981828,
,,,,,,,,,,,,,,,,19,0,19,0,,,,,,,,,,,,,,,4,3274.2303071999995,3274.2303071999995,3277.245849400002,3278.2639647999968,None,3278.2639647999968,3278.2639647999968,1,328.3577000038349,space,0.3283577000038349,3278.6455634000013,3279.148352000004,,,,,,,,,,,,,,Vojta,001,2023-12-15_11h41.36.213,game,2022.2.5,60.8736463981828,
,,,,,,,,,,,,,,,,20,0,20,0,,,,,,,,,,,,,,,2,3279.148352000004,3279.148352000004,3280.1518760000035,3281.162094200001,None,3281.162094200001,3281.162094200001,1,326.52129999769386,space,0.32652129999769386,3281.5440479000026,3282.0498845999973,,,,,,,,,,,,,,Vojta,001,2023-12-15_11h41.36.213,game,2022.2.5,60.8736463981828,
,,,,,,,,,,,,,,,,21,0,21,0,,,,,,,,,,,,,,,2,3282.0498845999973,3282.0498845999973,3283.0654085999995,3284.0772042000026,None,3284.0772042000026,3284.0772042000026,1,316.05380000110017,space,0.31605380000110017,3284.4269306999995,3284.9286815000014,,,,,,,,,,,,,,Vojta,001,2023-12-15_11h41.36.213,game,2022.2.5,60.8736463981828,
,,,,,,,,,,,,,,,,22,0,22,0,,,,,,,,,,,,,,,4,3284.9286815000014,3284.9286815000014,3287.928962099999,3288.929797900004,None,3288.929797900004,3288.929797900004,1,320.2283999999054,space,0.3202283999999054,3289.2928670999972,3289.847547600002,,,,,,,,,,,,,,Vojta,001,2023-12-15_11h41.36.213,game,2022.2.5,60.8736463981828,
,,,,,,,,,,,,,,,,23,0,23,0,,,,,,,,,,,,,,,4,3289.847547600002,3289.847547600002,3292.865708899997,3293.878031799999,None,3293.878031799999,3293.878031799999,1,290.76390000409447,space,0.29076390000409447,3294.246783100003,3294.7610612999997,,,,,,,,,,,,,,Vojta,001,2023-12-15_11h41.36.213,game,2022.2.5,60.8736463981828,
,,,,,,,,,,,,,,,,24,0,24,0,,,,,,,,,,,,,,,4,3294.7610612999997,3294.7610612999997,3297.7622034000015,3298.8317756000033,None,3298.8317756000033,3298.8317756000033,1,321.2725000048522,space,0.3212725000048522,3299.194752399999,3299.6946689000033,,,,,,,,,,,,,,Vojta,001,2023-12-15_11h41.36.213,game,2022.2.5,60.8736463981828,
,,,,,,,,,,,,,,,,25,0,25,0,,,,,,,,,,,,,,,2,3299.6946689000033,3299.6946689000033,3300.695812400001,3301.710646599997,None,3301.710646599997,3301.710646599997,1,291.0494999960065,space,0.2910494999960065,3302.0421413000004,3302.5456516999984,,,,,,,,,,,,,,Vojta,001,2023-12-15_11h41.36.213,game,2022.2.5,60.8736463981828,
,,,,,,,,,,,,,,,,26,0,26,0,,,,,,,,,,,,,,,1,3302.5456516999984,3302.5456516999984,3302.5456516999984,3303.560595499999,None,3303.560595499999,3303.560595499999,1,392.29609999893,space,0.39229609999893,3303.9921618000008,3304.5106723999997,,,,,,,,,,,,,,Vojta,001,2023-12-15_11h41.36.213,game,2022.2.5,60.8736463981828,
,,,,,,,,,,,,,,,,27,0,27,0,,,,,,,,,,,,,,,1,3304.5106723999997,3304.5106723999997,3304.5106723999997,3305.5116218999974,None,3305.5116218999974,3305.5116218999974,1,313.8512000004994,space,0.3138512000004994,3305.8767549999975,3306.3790033999976,,,,,,,,,,,,,,Vojta,001,2023-12-15_11h41.36.213,game,2022.2.5,60.8736463981828,
,,,,,,,,,,,,,,,,28,0,28,0,,,,,,,,,,,,,,,2,3306.3790033999976,3306.3790033999976,3307.3843084000036,3308.411094199997,None,3308.411094199997,3308.411094199997,1,349.47370000736555,space,0.34947370000736555,3308.793574000003,3309.3086550000007,,,,,,,,,,,,,,Vojta,001,2023-12-15_11h41.36.213,game,2022.2.5,60.8736463981828,
,,,,,,,,,,,,,,,,29,0,29,0,,,,,,,,,,,,,,,2,3309.3086550000007,3309.3086550000007,3310.314025599997,3311.3268947000033,None,3311.3268947000033,3311.3268947000033,1,346.2031000017305,space,0.3462031000017305,3311.745826600003,3312.2624934999985,,,,,,,,,,,,,,Vojta,001,2023-12-15_11h41.36.213,game,2022.2.5,60.8736463981828,
,,,,,,,,,,,,,,,,30,0,30,0,,,,,,,,,,,,,,,1,3312.2624934999985,3312.2624934999985,3312.2624934999985,3313.2918610999986,None,3313.2918610999986,3313.2918610999986,1,326.02700000279583,space,0.32602700000279583,3313.6604224999974,3314.1613664000033,,,,,,,,,,,,,,Vojta,001,2023-12-15_11h41.36.213,game,2022.2.5,60.8736463981828,
,,,,,,,,,,,,,,,,31,0,31,0,,,,,,,,,,,,,,,3,3314.1613664000033,3314.1613664000033,3316.178413399997,3317.1949002000038,None,3317.1949002000038,3317.1949002000038,1,351.1845999964862,space,0.3511845999964862,3317.5938156999982,3318.094455999999,,,,,,,,,,,,,,Vojta,001,2023-12-15_11h41.36.213,game,2022.2.5,60.8736463981828,
,,,,,,,,,,,,,,,,32,0,32,0,,,,,,,,,,,,,,,2,3318.094455999999,3318.094455999999,3319.0941515000013,3320.094117599998,None,3320.094117599998,3320.094117599998,1,307.2069000045303,space,0.3072069000045303,3320.4414252999995,3320.9427840999997,,,,,,,,,,,,,,Vojta,001,2023-12-15_11h41.36.213,game,2022.2.5,60.8736463981828,
,,,,,,,,,,,,,,,,33,0,33,0,,,,,,,,,,,,,,,4,3320.9427840999997,3320.9427840999997,3323.9472607999996,3324.9445514000035,None,3324.9445514000035,3324.9445514000035,1,280.2665000053821,space,0.2802665000053821,3325.2576203999997,3325.776092500004,,,,,,,,,,,,,,Vojta,001,2023-12-15_11h41.36.213,game,2022.2.5,60.8736463981828,
,,,,,,,,,,,,,,,,34,0,34,0,,,,,,,,,,,,,,,3,3325.776092500004,3325.776092500004,3327.7802846999984,3328.7768507,None,3328.7768507,3328.7768507,1,360.21700000128476,space,0.36021700000128476,3329.1739916000006,3329.676602200001,,,,,,,,,,,,,,Vojta,001,2023-12-15_11h41.36.213,game,2022.2.5,60.8736463981828,
,,,,,,,,,,,,,,,,35,0,35,0,,,,,,,,,,,,,,,1,3329.676602200001,3329.676602200001,3329.676602200001,3330.6931845,None,3330.6931845,3330.6931845,1,323.5008999981801,space,0.3235008999981801,3331.057399899997,3331.5597774999987,,,,,,,,,,,,,,Vojta,001,2023-12-15_11h41.36.213,game,2022.2.5,60.8736463981828,
,,,,,,,,,,,,,,,,36,0,36,0,,,,,,,,,,,,,,,4,3331.5597774999987,3331.5597774999987,3334.5592044000005,3335.5922947,None,3335.5922947,3335.5922947,1,305.6791000053636,space,0.3056791000053636,3335.9266026999976,3336.441652399997,,,,,,,,,,,,,,Vojta,001,2023-12-15_11h41.36.213,game,2022.2.5,60.8736463981828,
,,,,,,,,,,,,,,,,37,0,37,0,,,,,,,,,,,,,,,1,3336.441652399997,3336.441652399997,3336.441652399997,3337.4579366000034,None,3337.4579366000034,3337.4579366000034,1,343.4123999977601,space,0.3434123999977601,3337.842113300001,3338.3797104999976,,,,,,,,,,,,,,Vojta,001,2023-12-15_11h41.36.213,game,2022.2.5,60.8736463981828,
,,,,,,,,,,,,,,,,38,0,38,0,,,,,,,,,,,,,,,2,3338.3797104999976,3338.3797104999976,3339.394524299998,3340.394252799997,None,3340.394252799997,3340.394252799997,1,311.2223999996786,space,0.3112223999996786,3340.7415765999976,3341.2433887000007,,,,,,,,,,,,,,Vojta,001,2023-12-15_11h41.36.213,game,2022.2.5,60.8736463981828,
,,,,,,,,,,,,,,,,39,0,39,0,,,,,,,,,,,,,,,4,3341.2433887000007,3341.2433887000007,,,None,,,0,nan,None,,3347.5787389000034,3348.0923543000026,,,,,,,,,,,,,,Vojta,001,2023-12-15_11h41.36.213,game,2022.2.5,60.8736463981828,
,,,,,,,,,,,,,,,,40,0,40,0,,,,,,,,,,,,,,,3,3348.0923543000026,3348.0923543000026,,,None,,,0,nan,None,,3353.092975599997,3353.6259154,,,,,,,,,,,,,,Vojta,001,2023-12-15_11h41.36.213,game,2022.2.5,60.8736463981828,
,,,,,,,,,,,,,,,,41,0,41,0,,,,,,,,,,,,,,,2,3353.6259154,3353.6259154,3354.625872299999,3355.6411224999974,None,3355.6411224999974,3355.6411224999974,1,320.4685000018799,space,0.3204685000018799,3356.0059860000038,3356.508417899997,,,,,,,,,,,,,,Vojta,001,2023-12-15_11h41.36.213,game,2022.2.5,60.8736463981828,
,,,,,,,,,,,,,,,,42,0,42,0,,,,,,,,,,,,,,,2,3356.508417899997,3356.508417899997,3357.512134299999,3358.5229758999994,None,3358.5229758999994,3358.5229758999994,1,317.79229999665404,space,0.31779229999665404,3358.872283900004,3359.4281706999973,,,,,,,,,,,,,,Vojta,001,2023-12-15_11h41.36.213,game,2022.2.5,60.8736463981828,
,,,,,,,,,,,,,,,,43,0,43,0,,,,,,,,,,,,,,,3,3359.4281706999973,3359.4281706999973,3361.4418609999993,3362.4585171,None,3362.4585171,3362.4585171,1,335.71159999701194,space,0.33571159999701194,3362.8939997999987,3363.422134100001,,,,,,,,,,,,,,Vojta,001,2023-12-15_11h41.36.213,game,2022.2.5,60.8736463981828,
,,,,,,,,,,,,,,,,44,0,44,0,,,,,,,,,,,,,,,3,3363.422134100001,3363.422134100001,3365.426983700003,3366.4418385000026,None,3366.4418385000026,3366.4418385000026,1,359.258199998294,space,0.359258199998294,3366.838760999999,3367.3420018000033,,,,,,,,,,,,,,Vojta,001,2023-12-15_11h41.36.213,game,2022.2.5,60.8736463981828,
,,,,,,,,,,,,,,,,,,,,,,,,,,,,,,,,,,,,,,,,,,,,,,,,3367.3420018000033,3367.3420018000033,space,2.8520134999998845,,,,,,,,,,Vojta,001,2023-12-15_11h41.36.213,game,2022.2.5,60.8736463981828,
,,,,,,,,,,,,,,,,,,,,0,0,0,0,,,,,,,,,,,,,,,,,,,,,,,,,,,,,3370.223699000002,3370.223699000002,num_5,18.21013590000075,,,,,,Vojta,001,2023-12-15_11h41.36.213,game,2022.2.5,60.8736463981828,
,,,,,,,,,,,,,,,,,,,,1,0,1,0,,,,,,,,,,,,,,,,,,,,,,,,,,,,,3388.890438299997,3388.890438299997,num_6,1.5273773000008077,,,,,,Vojta,001,2023-12-15_11h41.36.213,game,2022.2.5,60.8736463981828,
,,,,,,,,,,,,,,,,,,,,2,0,2,0,,,,,,,,,,,,,,,,,,,,,,,,,,,,,3390.9427213000017,3390.9427213000017,num_4,6.378798899997491,,,,,,Vojta,001,2023-12-15_11h41.36.213,game,2022.2.5,60.8736463981828,
,,,,,,,,,,,,,,,,,,,,3,0,3,0,,,,,,,,,,,,,,,,,,,,,,,,,,,,,3397.7934776999973,3397.7934776999973,num_6,4.448150900003384,,,,,,Vojta,001,2023-12-15_11h41.36.213,game,2022.2.5,60.8736463981828,
,,,,,,,,,,,,,,,,,,,,4,0,4,0,,,,,,,,,,,,,,,,,,,,,,,,,,,,,3402.6204727000004,3402.6204727000004,num_7,5.397297900002741,,,,,,Vojta,001,2023-12-15_11h41.36.213,game,2022.2.5,60.8736463981828,
,,,,,,,,,,,,,,,,,,,,5,0,5,0,,,,,,,,,,,,,,,,,,,,,,,,,,,,,3408.3894932999974,3408.3894932999974,num_1,3.6596630000058212,,,,,,Vojta,001,2023-12-15_11h41.36.213,game,2022.2.5,60.8736463981828,
,,,,,,,,,,,,,,,,,,,,6,0,6,0,,,,,,,,,,,,,,,,,,,,,,,,,,,,,3412.608977099997,3412.608977099997,num_5,6.032657499999914,,,,,,Vojta,001,2023-12-15_11h41.36.213,game,2022.2.5,60.8736463981828,
,,,,,,,,,,,,,,,,,,,,7,0,7,0,,,,,,,,,,,,,,,,,,,,,,,,,,,,,3419.0537809000016,3419.0537809000016,num_1,3.411972499998228,,,,,,Vojta,001,2023-12-15_11h41.36.213,game,2022.2.5,60.8736463981828,
,,,,,,,,,,,,,,,,,,,,8,0,8,0,,,,,,,,,,,,,,,,,,,,,,,,,,,,,3422.905699900002,3422.905699900002,num_3,1.504173900000751,,,,,,Vojta,001,2023-12-15_11h41.36.213,game,2022.2.5,60.8736463981828,
,,,,,,,,,,,,,,,,,,,,9,0,9,0,,,,,,,,,,,,,,,,,,,,,,,,,,,,,3424.8862297000014,3424.8862297000014,num_5,7.4990580000012415,,,,,,Vojta,001,2023-12-15_11h41.36.213,game,2022.2.5,60.8736463981828,
,,,,,,,,,,,,,,,,,,,,10,0,10,0,,,,,,,,,,,,,,,,,,,,,,,,,,,,,3432.7869804,3432.7869804,num_1,1.8629486999998335,,,,,,Vojta,001,2023-12-15_11h41.36.213,game,2022.2.5,60.8736463981828,
,,,,,,,,,,,,,,,,,,,,11,0,11,0,,,,,,,,,,,,,,,,,,,,,,,,,,,,,3435.1029689999996,3435.1029689999996,num_6,1.87676300000021,,,,,,Vojta,001,2023-12-15_11h41.36.213,game,2022.2.5,60.8736463981828,
,,,,,,,,,,,,,,,,,,,,12,0,12,0,,,,,,,,,,,,,,,,,,,,,,,,,,,,,3437.471209000003,3437.471209000003,num_8,5.787957400003506,,,,,,Vojta,001,2023-12-15_11h41.36.213,game,2022.2.5,60.8736463981828,
,,,,,,,,,,,,,,,,,,,,13,0,13,0,,,,,,,,,,,,,,,,,,,,,,,,,,,,,3443.6517055000004,3443.6517055000004,num_4,1.8541353999971761,,,,,,Vojta,001,2023-12-15_11h41.36.213,game,2022.2.5,60.8736463981828,
,,,,,,,,,,,,,,,,,,,,14,0,14,0,,,,,,,,,,,,,,,,,,,,,,,,,,,,,3445.884965999998,3445.884965999998,num_9,3.740945899997314,,,,,,Vojta,001,2023-12-15_11h41.36.213,game,2022.2.5,60.8736463981828,
,,,,,,,,,,,,,,,,,,,,15,0,15,0,,,,,,,,,,,,,,,,,,,,,,,,,,,,,3449.9848031,3449.9848031,num_3,2.9310594000053243,,,,,,Vojta,001,2023-12-15_11h41.36.213,game,2022.2.5,60.8736463981828,
,,,,,,,,,,,,,,,,,,,,16,0,16,0,,,,,,,,,,,,,,,,,,,,,,,,,,,,,3453.319896400004,3453.319896400004,num_0,1.554170299998077,,,,,,Vojta,001,2023-12-15_11h41.36.213,game,2022.2.5,60.8736463981828,
,,,,,,,,,,,,,,,,,,,,17,0,17,0,,,,,,,,,,,,,,,,,,,,,,,,,,,,,3455.3200251000017,3455.3200251000017,num_7,3.794117699995695,,,,,,Vojta,001,2023-12-15_11h41.36.213,game,2022.2.5,60.8736463981828,
,,,,,,,,,,,,,,,,,,,,18,0,18,0,,,,,,,,,,,,,,,,,,,,,,,,,,,,,3459.537851000001,3459.537851000001,num_4,3.0481222000016714,,,,,,Vojta,001,2023-12-15_11h41.36.213,game,2022.2.5,60.8736463981828,
,,,,,,,,,,,,,,,,,,,,19,0,19,0,,,,,,,,,,,,,,,,,,,,,,,,,,,,,3462.9671385999973,3462.9671385999973,num_3,4.026339399999415,,,,,,Vojta,001,2023-12-15_11h41.36.213,game,2022.2.5,60.8736463981828,
,,,,,,,,,,,,,,,,,,,,20,0,20,0,,,,,,,,,,,,,,,,,,,,,,,,,,,,,3467.3834441,3467.3834441,num_1,1.8504544999959762,,,,,,Vojta,001,2023-12-15_11h41.36.213,game,2022.2.5,60.8736463981828,
,,,,,,,,,,,,,,,,,,,,21,0,21,0,,,,,,,,,,,,,,,,,,,,,,,,,,,,,3469.617274600001,3469.617274600001,num_6,3.7443058000062592,,,,,,Vojta,001,2023-12-15_11h41.36.213,game,2022.2.5,60.8736463981828,
,,,,,,,,,,,,,,,,,,,,22,0,22,0,,,,,,,,,,,,,,,,,,,,,,,,,,,,,3473.7332621000023,3473.7332621000023,num_2,4.173031600003014,,,,,,Vojta,001,2023-12-15_11h41.36.213,game,2022.2.5,60.8736463981828,
,,,,,,,,,,,,,,,,,,,,23,0,23,0,,,,,,,,,,,,,,,,,,,,,,,,,,,,,3478.316360500001,3478.316360500001,num_5,2.686363300002995,,,,,,Vojta,001,2023-12-15_11h41.36.213,game,2022.2.5,60.8736463981828,
,,,,,,,,,,,,,,,,,,,,24,0,24,0,,,,,,,,,,,,,,,,,,,,,,,,,,,,,3481.4659864999994,3481.4659864999994,num_1,1.6877236000000266,,,,,,Vojta,001,2023-12-15_11h41.36.213,game,2022.2.5,60.8736463981828,
,,,,,,,,,,,,,,,,,,,,25,0,25,0,,,,,,,,,,,,,,,,,,,,,,,,,,,,,3483.6163548999975,3483.6163548999975,num_4,6.986579199998232,,,,,,Vojta,001,2023-12-15_11h41.36.213,game,2022.2.5,60.8736463981828,
,,,,,,,,,,,,,,,,,,,,26,0,26,0,,,,,,,,,,,,,,,,,,,,,,,,,,,,,3491.0342764000015,3491.0342764000015,num_6,4.20057330000418,,,,,,Vojta,001,2023-12-15_11h41.36.213,game,2022.2.5,60.8736463981828,
,,,,,,,,,,,,,,,,,,,,27,0,27,0,,,,,,,,,,,,,,,,,,,,,,,,,,,,,3495.6329001999984,3495.6329001999984,num_2,1.8739141000041855,,,,,,Vojta,001,2023-12-15_11h41.36.213,game,2022.2.5,60.8736463981828,
,,,,,,,,,,,,,,,,,,,,28,0,28,0,,,,,,,,,,,,,,,,,,,,,,,,,,,,,3497.8990277999983,3497.8990277999983,num_8,1.9523644000000786,,,,,,Vojta,001,2023-12-15_11h41.36.213,game,2022.2.5,60.8736463981828,
,,,,,,,,,,,,,,,,,,,,29,0,29,0,,,,,,,,,,,,,,,,,,,,,,,,,,,,,3500.2658539999975,3500.2658539999975,num_1,3.616423500003293,,,,,,Vojta,001,2023-12-15_11h41.36.213,game,2022.2.5,60.8736463981828,
,,,,,,,,,,,,,,,,,,,,30,0,30,0,,,,,,,,,,,,,,,,,,,,,,,,,,,,,3504.398796100002,3504.398796100002,num_0,4.691114100001869,,,,,,Vojta,001,2023-12-15_11h41.36.213,game,2022.2.5,60.8736463981828,
,,,,,,,,,,,,,,,,,,,,31,0,31,0,,,,,,,,,,,,,,,,,,,,,,,,,,,,,3509.517190999999,3509.517190999999,num_0,1.597325600007025,,,,,,Vojta,001,2023-12-15_11h41.36.213,game,2022.2.5,60.8736463981828,
,,,,,,,,,,,,,,,,,,,,32,0,32,0,,,,,,,,,,,,,,,,,,,,,,,,,,,,,3511.5157935000025,3511.5157935000025,num_0,1.6380996999942,,,,,,Vojta,001,2023-12-15_11h41.36.213,game,2022.2.5,60.8736463981828,
,,,,,,,,,,,,,,,,,,,,33,0,33,0,,,,,,,,,,,,,,,,,,,,,,,,,,,,,3513.5838160999992,3513.5838160999992,num_5,2.1862341000014567,,,,,,Vojta,001,2023-12-15_11h41.36.213,game,2022.2.5,60.8736463981828,
,,,,,,,,,,,,,,,,,,,,34,0,34,0,,,,,,,,,,,,,,,,,,,,,,,,,,,,,3516.197342200001,3516.197342200001,None,,,,,,,Vojta,001,2023-12-15_11h41.36.213,game,2022.2.5,60.8736463981828,
,,,,,,,,,,,,,,,,,,,,,,,,,,,,,,,,,,,,,,,,,,,,,,,,,,,,,,,,,,,,3520.231298699997,,,,,,,
