trial,file,corrAns,tone,trials.thisRepN,trials.thisTrialN,trials.thisN,trials.thisIndex,trials_2.thisRepN,trials_2.thisTrialN,trials_2.thisN,trials_2.thisIndex,instructions.started,key_resp_1.started,key_resp_1.keys,key_resp_1.rt,fixation.started,sound_1.started,sound_1.stopped,instructions_2.started,key_resp_2.started,key_resp_2.keys,key_resp_2.rt,fixation.stopped,participant,session,date,expName,psychopyVersion,frameRate,
,,,,,,,,,,,,39.68200950004393,39.68200950004393,space,10.986805799999274,,,,,,,,,counter1,001,2023-10-19_16h07.13.981,Oddball_task,2022.2.5,None,
standard,soundFiles/1000Hz_-3dBFS_3s_44.1kHz.wav',None,1000,0,0,0,1,,,,,,,,,50.715476600045804,51.18123164001736,,,,,,,counter1,001,2023-10-19_16h07.13.981,Oddball_task,2022.2.5,None,
standard,soundFiles/1000Hz_-3dBFS_3s_44.1kHz.wav',None,1000,0,1,1,2,,,,,,,,,51.69888280000305,52.181039040006,,,,,,,counter1,001,2023-10-19_16h07.13.981,Oddball_task,2022.2.5,None,
target,soundFiles/1200Hz_-3dBFS_3s_44.1kHz.wav',t,1200,0,2,2,3,,,,,,,,,52.69620780000696,53.1842480400519,,,,,,,counter1,001,2023-10-19_16h07.13.981,Oddball_task,2022.2.5,None,
standard,soundFiles/1000Hz_-3dBFS_3s_44.1kHz.wav',None,1000,0,3,3,0,,,,,,,,,53.697023900051136,54.17884914003662,54.677837700000964,,,,,,counter1,001,2023-10-19_16h07.13.981,Oddball_task,2022.2.5,None,
,,,,,,,,,,,,,,,,,,,54.69643980002729,54.69643980002729,space,192.46090579999145,,counter1,001,2023-10-19_16h07.13.981,Oddball_task,2022.2.5,None,
standard,soundFiles/250Hz_44100Hz_16bit_05sec.wav',None,250,,,,,0,0,0,5,,,,,247.17976560001262,247.6645056400157,,,,,,248.1809470000444,counter1,001,2023-10-19_16h07.13.981,Oddball_task,2022.2.5,None,
target,soundFiles/1200Hz_-3dBFS_3s_44.1kHz.wav',t,1200,,,,,0,1,1,3,,,,,248.1809470000444,248.67952334004804,,,,,,,counter1,001,2023-10-19_16h07.13.981,Oddball_task,2022.2.5,None,
standard,soundFiles/250Hz_44100Hz_16bit_05sec.wav',None,250,,,,,0,2,2,5,,,,,249.19433570001274,249.67747074001818,,,,,,,counter1,001,2023-10-19_16h07.13.981,Oddball_task,2022.2.5,None,
standard,soundFiles/250Hz_44100Hz_16bit_05sec.wav',None,250,,,,,0,3,3,7,,,,,250.19276679999894,250.68114984003478,,,,,,,counter1,001,2023-10-19_16h07.13.981,Oddball_task,2022.2.5,None,
standard,soundFiles/250Hz_44100Hz_16bit_05sec.wav',None,250,,,,,0,4,4,7,,,,,251.19263370003318,251.67933754003025,,,,,,,counter1,001,2023-10-19_16h07.13.981,Oddball_task,2022.2.5,None,
standard,soundFiles/250Hz_44100Hz_16bit_05sec.wav',None,250,,,,,0,5,5,0,,,,,252.19205060001696,252.67444974000682,,,,,,,counter1,001,2023-10-19_16h07.13.981,Oddball_task,2022.2.5,None,
standard,soundFiles/250Hz_44100Hz_16bit_05sec.wav',None,250,,,,,0,6,6,6,,,,,253.19100320001598,253.67388974005007,,,,,,,counter1,001,2023-10-19_16h07.13.981,Oddball_task,2022.2.5,None,
standard,soundFiles/250Hz_44100Hz_16bit_05sec.wav',None,250,,,,,0,7,7,5,,,,,254.1898477000068,254.67292664005072,,,,,,,counter1,001,2023-10-19_16h07.13.981,Oddball_task,2022.2.5,None,
standard,soundFiles/250Hz_44100Hz_16bit_05sec.wav',None,250,,,,,1,0,8,4,,,,,255.18866179999895,255.6727378400101,256.17346530000214,,,,,,counter1,001,2023-10-19_16h07.13.981,Oddball_task,2022.2.5,None,
target,soundFiles/1200Hz_-3dBFS_3s_44.1kHz.wav',t,1200,,,,,1,1,9,3,,,,,256.18797750002705,256.671023240051,257.1715844999999,,,,,,counter1,001,2023-10-19_16h07.13.981,Oddball_task,2022.2.5,None,
standard,soundFiles/250Hz_44100Hz_16bit_05sec.wav',None,250,,,,,1,2,10,1,,,,,257.18663650000235,257.67041124004754,258.16907050000736,,,,,,counter1,001,2023-10-19_16h07.13.981,Oddball_task,2022.2.5,None,
standard,soundFiles/250Hz_44100Hz_16bit_05sec.wav',None,250,,,,,1,3,11,5,,,,,258.1859572000103,258.6689893400471,259.16854690003674,,,,,,counter1,001,2023-10-19_16h07.13.981,Oddball_task,2022.2.5,None,
target,soundFiles/1200Hz_-3dBFS_3s_44.1kHz.wav',t,1200,,,,,1,4,12,3,,,,,259.1880861000391,259.66887824001606,260.1687315000454,,,,,,counter1,001,2023-10-19_16h07.13.981,Oddball_task,2022.2.5,None,
standard,soundFiles/250Hz_44100Hz_16bit_05sec.wav',None,250,,,,,1,5,13,0,,,,,260.18490360002033,260.66803484005504,,,,,,,counter1,001,2023-10-19_16h07.13.981,Oddball_task,2022.2.5,None,
standard,soundFiles/250Hz_44100Hz_16bit_05sec.wav',None,250,,,,,1,6,14,2,,,,,261.1827252000221,261.66664574001334,,,,,,,counter1,001,2023-10-19_16h07.13.981,Oddball_task,2022.2.5,None,
target,soundFiles/1200Hz_-3dBFS_3s_44.1kHz.wav',t,1200,,,,,1,7,15,3,,,,,262.18554730003234,262.66824004004593,,,,,,,counter1,001,2023-10-19_16h07.13.981,Oddball_task,2022.2.5,None,
standard,soundFiles/250Hz_44100Hz_16bit_05sec.wav',None,250,,,,,2,0,16,6,,,,,263.1978009000304,263.66408634002437,264.16786690003937,,,,,,counter1,001,2023-10-19_16h07.13.981,Oddball_task,2022.2.5,None,
standard,soundFiles/250Hz_44100Hz_16bit_05sec.wav',None,250,,,,,2,1,17,7,,,,,264.18000790005317,264.66639394001686,,,,,,265.18241440004203,counter1,001,2023-10-19_16h07.13.981,Oddball_task,2022.2.5,None,
standard,soundFiles/250Hz_44100Hz_16bit_05sec.wav',None,250,,,,,2,2,18,5,,,,,265.18241440004203,265.68033854002715,,,,,,,counter1,001,2023-10-19_16h07.13.981,Oddball_task,2022.2.5,None,
standard,soundFiles/250Hz_44100Hz_16bit_05sec.wav',None,250,,,,,2,3,19,4,,,,,266.19805510004517,266.66466254004627,,,,,,,counter1,001,2023-10-19_16h07.13.981,Oddball_task,2022.2.5,None,
standard,soundFiles/250Hz_44100Hz_16bit_05sec.wav',None,250,,,,,2,4,20,5,,,,,267.19387830002233,267.67751194004086,268.1770499999984,,,,,,counter1,001,2023-10-19_16h07.13.981,Oddball_task,2022.2.5,None,
standard,soundFiles/250Hz_44100Hz_16bit_05sec.wav',None,250,,,,,2,5,21,0,,,,,268.19323900004383,268.6775972400501,,,,,,,counter1,001,2023-10-19_16h07.13.981,Oddball_task,2022.2.5,None,
target,soundFiles/1200Hz_-3dBFS_3s_44.1kHz.wav',t,1200,,,,,2,6,22,3,,,,,269.1942794000497,269.6757783400535,,,,,,,counter1,001,2023-10-19_16h07.13.981,Oddball_task,2022.2.5,None,
standard,soundFiles/250Hz_44100Hz_16bit_05sec.wav',None,250,,,,,2,7,23,2,,,,,270.19196210004156,270.67485174004105,,,,,,,counter1,001,2023-10-19_16h07.13.981,Oddball_task,2022.2.5,None,
standard,soundFiles/250Hz_44100Hz_16bit_05sec.wav',None,250,,,,,3,0,24,4,,,,,271.19024290004745,271.67351934002363,272.1754675000557,,,,,,counter1,001,2023-10-19_16h07.13.981,Oddball_task,2022.2.5,None,
standard,soundFiles/250Hz_44100Hz_16bit_05sec.wav',None,250,,,,,3,1,25,1,,,,,272.1895783000509,272.6730446400179,,,,,,,counter1,001,2023-10-19_16h07.13.981,Oddball_task,2022.2.5,None,
standard,soundFiles/250Hz_44100Hz_16bit_05sec.wav',None,250,,,,,3,2,26,6,,,,,273.1881750000175,273.6723396400048,,,,,,,counter1,001,2023-10-19_16h07.13.981,Oddball_task,2022.2.5,None,
standard,soundFiles/250Hz_44100Hz_16bit_05sec.wav',None,250,,,,,3,3,27,4,,,,,274.187696100038,274.6726082400128,,,,,,,counter1,001,2023-10-19_16h07.13.981,Oddball_task,2022.2.5,None,
standard,soundFiles/250Hz_44100Hz_16bit_05sec.wav',None,250,,,,,3,4,28,6,,,,,275.18632370000705,275.6701761400036,,,,,,,counter1,001,2023-10-19_16h07.13.981,Oddball_task,2022.2.5,None,
standard,soundFiles/250Hz_44100Hz_16bit_05sec.wav',None,250,,,,,3,5,29,1,,,,,276.1859011000488,276.6691617400211,277.1679416000261,,,,,,counter1,001,2023-10-19_16h07.13.981,Oddball_task,2022.2.5,None,
standard,soundFiles/250Hz_44100Hz_16bit_05sec.wav',None,250,,,,,3,6,30,1,,,,,277.18788070004666,277.66802524004015,278.16727500001434,,,,,,counter1,001,2023-10-19_16h07.13.981,Oddball_task,2022.2.5,None,
standard,soundFiles/250Hz_44100Hz_16bit_05sec.wav',None,250,,,,,3,7,31,0,,,,,278.1838623000076,278.6674372400448,279.1663833000348,,,,,,counter1,001,2023-10-19_16h07.13.981,Oddball_task,2022.2.5,None,
standard,soundFiles/250Hz_44100Hz_16bit_05sec.wav',None,250,,,,,4,0,32,6,,,,,279.1833040000056,279.66660664000665,280.1658979000058,,,,,,counter1,001,2023-10-19_16h07.13.981,Oddball_task,2022.2.5,None,
standard,soundFiles/250Hz_44100Hz_16bit_05sec.wav',None,250,,,,,4,1,33,4,,,,,280.1836852999986,280.66560924003716,281.1659802000504,,,,,,counter1,001,2023-10-19_16h07.13.981,Oddball_task,2022.2.5,None,
standard,soundFiles/250Hz_44100Hz_16bit_05sec.wav',None,250,,,,,4,2,34,4,,,,,281.18151270004455,281.6653239400184,,,,,,,counter1,001,2023-10-19_16h07.13.981,Oddball_task,2022.2.5,None,
target,soundFiles/1200Hz_-3dBFS_3s_44.1kHz.wav',t,1200,,,,,4,3,35,3,,,,,282.1800935000065,282.6800794400333,,,,,,283.1798448000336,counter1,001,2023-10-19_16h07.13.981,Oddball_task,2022.2.5,None,
standard,soundFiles/250Hz_44100Hz_16bit_05sec.wav',None,250,,,,,4,4,36,7,,,,,283.1798448000336,283.6670442400209,,,,,,284.1794423000538,counter1,001,2023-10-19_16h07.13.981,Oddball_task,2022.2.5,None,
standard,soundFiles/250Hz_44100Hz_16bit_05sec.wav',None,250,,,,,4,5,37,6,,,,,284.1794423000538,284.6649234400538,,,,,,285.1799747000332,counter1,001,2023-10-19_16h07.13.981,Oddball_task,2022.2.5,None,
standard,soundFiles/250Hz_44100Hz_16bit_05sec.wav',None,250,,,,,4,6,38,0,,,,,285.1799747000332,285.6778663400037,,,,,,,counter1,001,2023-10-19_16h07.13.981,Oddball_task,2022.2.5,None,
standard,soundFiles/250Hz_44100Hz_16bit_05sec.wav',None,250,,,,,4,7,39,6,,,,,286.1926727000391,286.6759079400508,,,,,,,counter1,001,2023-10-19_16h07.13.981,Oddball_task,2022.2.5,None,
standard,soundFiles/250Hz_44100Hz_16bit_05sec.wav',None,250,,,,,5,0,40,6,,,,,287.1922652000212,287.6756934400473,,,,,,,counter1,001,2023-10-19_16h07.13.981,Oddball_task,2022.2.5,None,
standard,soundFiles/250Hz_44100Hz_16bit_05sec.wav',None,250,,,,,5,1,41,4,,,,,288.19141000002855,288.67421183999977,289.17406190000474,,,,,,counter1,001,2023-10-19_16h07.13.981,Oddball_task,2022.2.5,None,
standard,soundFiles/250Hz_44100Hz_16bit_05sec.wav',None,250,,,,,5,2,42,6,,,,,289.1907224000315,289.6731945400534,290.1732422000496,,,,,,counter1,001,2023-10-19_16h07.13.981,Oddball_task,2022.2.5,None,
standard,soundFiles/250Hz_44100Hz_16bit_05sec.wav',None,250,,,,,5,3,43,2,,,,,290.18962630000897,290.67274564001127,291.17221360001713,,,,,,counter1,001,2023-10-19_16h07.13.981,Oddball_task,2022.2.5,None,
standard,soundFiles/250Hz_44100Hz_16bit_05sec.wav',None,250,,,,,5,4,44,1,,,,,291.1890480000293,291.6745453400363,,,,,,,counter1,001,2023-10-19_16h07.13.981,Oddball_task,2022.2.5,None,
standard,soundFiles/250Hz_44100Hz_16bit_05sec.wav',None,250,,,,,5,5,45,4,,,,,292.1877862000256,292.67089164003846,,,,,,,counter1,001,2023-10-19_16h07.13.981,Oddball_task,2022.2.5,None,
target,soundFiles/1200Hz_-3dBFS_3s_44.1kHz.wav',t,1200,,,,,5,6,46,3,,,,,293.1878040000447,293.6702786400274,,,,,,,counter1,001,2023-10-19_16h07.13.981,Oddball_task,2022.2.5,None,
standard,soundFiles/250Hz_44100Hz_16bit_05sec.wav',None,250,,,,,5,7,47,1,,,,,294.186587800039,294.6708100399992,,,,,,,counter1,001,2023-10-19_16h07.13.981,Oddball_task,2022.2.5,None,
standard,soundFiles/250Hz_44100Hz_16bit_05sec.wav',None,250,,,,,6,0,48,4,,,,,295.18462980003096,295.66766644004383,,,,,,,counter1,001,2023-10-19_16h07.13.981,Oddball_task,2022.2.5,None,
target,soundFiles/1200Hz_-3dBFS_3s_44.1kHz.wav',t,1200,,,,,6,1,49,3,,,,,296.18648850003956,296.6670217400242,,,,,,,counter1,001,2023-10-19_16h07.13.981,Oddball_task,2022.2.5,None,
standard,soundFiles/250Hz_44100Hz_16bit_05sec.wav',None,250,,,,,6,2,50,1,,,,,297.1827164000133,297.66587264000555,,,,,,,counter1,001,2023-10-19_16h07.13.981,Oddball_task,2022.2.5,None,
target,soundFiles/1200Hz_-3dBFS_3s_44.1kHz.wav',t,1200,,,,,6,3,51,3,,,,,298.18175930000143,298.6670075400325,299.1644879000378,,,,,,counter1,001,2023-10-19_16h07.13.981,Oddball_task,2022.2.5,None,
standard,soundFiles/250Hz_44100Hz_16bit_05sec.wav',None,250,,,,,6,4,52,6,,,,,299.1844796000514,299.66421054003877,,,,,,,counter1,001,2023-10-19_16h07.13.981,Oddball_task,2022.2.5,None,
standard,soundFiles/250Hz_44100Hz_16bit_05sec.wav',None,250,,,,,6,5,53,2,,,,,300.1802133000456,300.67958284003544,,,,,,301.17912570002954,counter1,001,2023-10-19_16h07.13.981,Oddball_task,2022.2.5,None,
standard,soundFiles/250Hz_44100Hz_16bit_05sec.wav',None,250,,,,,6,6,54,7,,,,,301.17912570002954,301.6815826400125,,,,,,302.181435400038,counter1,001,2023-10-19_16h07.13.981,Oddball_task,2022.2.5,None,
standard,soundFiles/250Hz_44100Hz_16bit_05sec.wav',None,250,,,,,6,7,55,5,,,,,302.181435400038,302.67859183999826,,,,,,,counter1,001,2023-10-19_16h07.13.981,Oddball_task,2022.2.5,None,
standard,soundFiles/250Hz_44100Hz_16bit_05sec.wav',None,250,,,,,7,0,56,6,,,,,303.1939451000071,303.67747554005473,,,,,,,counter1,001,2023-10-19_16h07.13.981,Oddball_task,2022.2.5,None,
standard,soundFiles/250Hz_44100Hz_16bit_05sec.wav',None,250,,,,,7,1,57,7,,,,,304.1938117000391,304.676217440021,305.1769675000105,,,,,,counter1,001,2023-10-19_16h07.13.981,Oddball_task,2022.2.5,None,
standard,soundFiles/250Hz_44100Hz_16bit_05sec.wav',None,250,,,,,7,2,58,6,,,,,305.195377200027,305.67484864001744,,,,,,,counter1,001,2023-10-19_16h07.13.981,Oddball_task,2022.2.5,None,
standard,soundFiles/250Hz_44100Hz_16bit_05sec.wav',None,250,,,,,7,3,59,6,,,,,306.1940183000406,306.6740109400416,,,,,,,counter1,001,2023-10-19_16h07.13.981,Oddball_task,2022.2.5,None,
standard,soundFiles/250Hz_44100Hz_16bit_05sec.wav',None,250,,,,,7,4,60,6,,,,,307.1905217000167,307.67378034003195,,,,,,,counter1,001,2023-10-19_16h07.13.981,Oddball_task,2022.2.5,None,
standard,soundFiles/250Hz_44100Hz_16bit_05sec.wav',None,250,,,,,7,5,61,2,,,,,308.1889514000504,308.6726844400109,309.17187900003046,,,,,,counter1,001,2023-10-19_16h07.13.981,Oddball_task,2022.2.5,None,
standard,soundFiles/250Hz_44100Hz_16bit_05sec.wav',None,250,,,,,7,6,62,6,,,,,309.1885530000436,309.67234884001664,,,,,,,counter1,001,2023-10-19_16h07.13.981,Oddball_task,2022.2.5,None,
standard,soundFiles/250Hz_44100Hz_16bit_05sec.wav',None,250,,,,,7,7,63,1,,,,,310.1876341000316,310.6714068400033,311.17001520004123,,,,,,counter1,001,2023-10-19_16h07.13.981,Oddball_task,2022.2.5,None,
standard,soundFiles/250Hz_44100Hz_16bit_05sec.wav',None,250,,,,,8,0,64,0,,,,,311.1871422000113,311.6697802400158,312.16905970004154,,,,,,counter1,001,2023-10-19_16h07.13.981,Oddball_task,2022.2.5,None,
standard,soundFiles/250Hz_44100Hz_16bit_05sec.wav',None,250,,,,,8,1,65,1,,,,,312.18552630004706,312.6713973400474,,,,,,,counter1,001,2023-10-19_16h07.13.981,Oddball_task,2022.2.5,None,
standard,soundFiles/250Hz_44100Hz_16bit_05sec.wav',None,250,,,,,8,2,66,5,,,,,313.1855630000355,313.6676362400467,314.1696940000402,,,,,,counter1,001,2023-10-19_16h07.13.981,Oddball_task,2022.2.5,None,
target,soundFiles/1200Hz_-3dBFS_3s_44.1kHz.wav',t,1200,,,,,8,3,67,3,,,,,314.183142599999,314.6695332399977,,,,,,,counter1,001,2023-10-19_16h07.13.981,Oddball_task,2022.2.5,None,
standard,soundFiles/250Hz_44100Hz_16bit_05sec.wav',None,250,,,,,8,4,68,2,,,,,315.1824390000547,315.666292740003,316.1674436000176,,,,,,counter1,001,2023-10-19_16h07.13.981,Oddball_task,2022.2.5,None,
target,soundFiles/1200Hz_-3dBFS_3s_44.1kHz.wav',t,1200,,,,,8,5,69,3,,,,,316.18251730001066,316.6648886400217,317.1637474000454,,,,,,counter1,001,2023-10-19_16h07.13.981,Oddball_task,2022.2.5,None,
standard,soundFiles/250Hz_44100Hz_16bit_05sec.wav',None,250,,,,,8,6,70,0,,,,,317.19723730004625,317.6641116400424,,,,,,,counter1,001,2023-10-19_16h07.13.981,Oddball_task,2022.2.5,None,
standard,soundFiles/250Hz_44100Hz_16bit_05sec.wav',None,250,,,,,8,7,71,2,,,,,318.19660940003814,318.6813880400441,319.17913240002235,,,,,,counter1,001,2023-10-19_16h07.13.981,Oddball_task,2022.2.5,None,
standard,soundFiles/250Hz_44100Hz_16bit_05sec.wav',None,250,,,,,9,0,72,1,,,,,319.1995642000111,319.6789744400012,320.17829800001346,,,,,,counter1,001,2023-10-19_16h07.13.981,Oddball_task,2022.2.5,None,
standard,soundFiles/250Hz_44100Hz_16bit_05sec.wav',None,250,,,,,9,1,73,5,,,,,320.19432460004464,320.6643131400051,,,,,,,counter1,001,2023-10-19_16h07.13.981,Oddball_task,2022.2.5,None,
standard,soundFiles/250Hz_44100Hz_16bit_05sec.wav',None,250,,,,,9,2,74,6,,,,,321.1945513000246,321.6765938400349,,,,,,,counter1,001,2023-10-19_16h07.13.981,Oddball_task,2022.2.5,None,
target,soundFiles/1200Hz_-3dBFS_3s_44.1kHz.wav',t,1200,,,,,9,3,75,3,,,,,322.19244569999864,322.67590944000403,,,,,,,counter1,001,2023-10-19_16h07.13.981,Oddball_task,2022.2.5,None,
standard,soundFiles/250Hz_44100Hz_16bit_05sec.wav',None,250,,,,,9,4,76,0,,,,,323.19371840002714,323.67676914003096,,,,,,,counter1,001,2023-10-19_16h07.13.981,Oddball_task,2022.2.5,None,
target,soundFiles/1200Hz_-3dBFS_3s_44.1kHz.wav',t,1200,,,,,9,5,77,3,,,,,324.1913586000446,324.67640224003117,,,,,,,counter1,001,2023-10-19_16h07.13.981,Oddball_task,2022.2.5,None,
standard,soundFiles/250Hz_44100Hz_16bit_05sec.wav',None,250,,,,,9,6,78,2,,,,,325.19003310002154,325.67375364000327,,,,,,,counter1,001,2023-10-19_16h07.13.981,Oddball_task,2022.2.5,None,
standard,soundFiles/250Hz_44100Hz_16bit_05sec.wav',None,250,,,,,9,7,79,5,,,,,326.19192070001736,326.6721308400447,,,,,,,counter1,001,2023-10-19_16h07.13.981,Oddball_task,2022.2.5,None,
standard,soundFiles/250Hz_44100Hz_16bit_05sec.wav',None,250,,,,,10,0,80,0,,,,,327.1884492000099,327.67118364005,,,,,,,counter1,001,2023-10-19_16h07.13.981,Oddball_task,2022.2.5,None,
standard,soundFiles/250Hz_44100Hz_16bit_05sec.wav',None,250,,,,,10,1,81,2,,,,,328.1874992000521,328.6707785400504,,,,,,,counter1,001,2023-10-19_16h07.13.981,Oddball_task,2022.2.5,None,
standard,soundFiles/250Hz_44100Hz_16bit_05sec.wav',None,250,,,,,10,2,82,2,,,,,329.1867629000335,329.6700716400228,,,,,,,counter1,001,2023-10-19_16h07.13.981,Oddball_task,2022.2.5,None,
standard,soundFiles/250Hz_44100Hz_16bit_05sec.wav',None,250,,,,,10,3,83,1,,,,,330.1854079000186,330.66874004001147,331.1678138000425,,,,,,counter1,001,2023-10-19_16h07.13.981,Oddball_task,2022.2.5,None,
standard,soundFiles/250Hz_44100Hz_16bit_05sec.wav',None,250,,,,,10,4,84,0,,,,,331.18387900001835,331.6682835400279,,,,,,,counter1,001,2023-10-19_16h07.13.981,Oddball_task,2022.2.5,None,
standard,soundFiles/250Hz_44100Hz_16bit_05sec.wav',None,250,,,,,10,5,85,6,,,,,332.1837642000173,332.66637324003386,333.16940770001383,,,,,,counter1,001,2023-10-19_16h07.13.981,Oddball_task,2022.2.5,None,
standard,soundFiles/250Hz_44100Hz_16bit_05sec.wav',None,250,,,,,10,6,86,1,,,,,333.182561900001,333.66578314002254,334.1643616000074,,,,,,counter1,001,2023-10-19_16h07.13.981,Oddball_task,2022.2.5,None,
standard,soundFiles/250Hz_44100Hz_16bit_05sec.wav',None,250,,,,,10,7,87,1,,,,,334.1979427000042,334.6649472400022,335.16432420001365,,,,,,counter1,001,2023-10-19_16h07.13.981,Oddball_task,2022.2.5,None,
standard,soundFiles/250Hz_44100Hz_16bit_05sec.wav',None,250,,,,,11,0,88,7,,,,,335.19999970000936,335.6642024400353,336.16700230003335,,,,,,counter1,001,2023-10-19_16h07.13.981,Oddball_task,2022.2.5,None,
standard,soundFiles/250Hz_44100Hz_16bit_05sec.wav',None,250,,,,,11,1,89,2,,,,,336.1798572000116,336.66388844003086,337.16261590004433,,,,,337.17881130002206,counter1,001,2023-10-19_16h07.13.981,Oddball_task,2022.2.5,None,
standard,soundFiles/250Hz_44100Hz_16bit_05sec.wav',None,250,,,,,11,2,90,2,,,,,337.17881130002206,337.67924364001374,,,,,,338.1779739000485,counter1,001,2023-10-19_16h07.13.981,Oddball_task,2022.2.5,None,
standard,soundFiles/250Hz_44100Hz_16bit_05sec.wav',None,250,,,,,11,3,91,2,,,,,338.19632710004225,338.67940014004125,,,,,,,counter1,001,2023-10-19_16h07.13.981,Oddball_task,2022.2.5,None,
standard,soundFiles/250Hz_44100Hz_16bit_05sec.wav',None,250,,,,,11,4,92,1,,,,,339.1936293000472,339.6764771400194,340.17759900004603,,,,,,counter1,001,2023-10-19_16h07.13.981,Oddball_task,2022.2.5,None,
standard,soundFiles/250Hz_44100Hz_16bit_05sec.wav',None,250,,,,,11,5,93,1,,,,,340.1945368000306,340.6769768400409,,,,,,,counter1,001,2023-10-19_16h07.13.981,Oddball_task,2022.2.5,None,
standard,soundFiles/250Hz_44100Hz_16bit_05sec.wav',None,250,,,,,11,6,94,7,,,,,341.1921899000299,341.6769754400302,,,,,,,counter1,001,2023-10-19_16h07.13.981,Oddball_task,2022.2.5,None,
standard,soundFiles/250Hz_44100Hz_16bit_05sec.wav',None,250,,,,,11,7,95,2,,,,,342.1909726000158,342.6737691400049,343.1765538000036,,,,,,counter1,001,2023-10-19_16h07.13.981,Oddball_task,2022.2.5,None,
standard,soundFiles/250Hz_44100Hz_16bit_05sec.wav',None,250,,,,,12,0,96,7,,,,,343.19145969999954,343.6729184400465,344.17294340004446,,,,,,counter1,001,2023-10-19_16h07.13.981,Oddball_task,2022.2.5,None,
target,soundFiles/1200Hz_-3dBFS_3s_44.1kHz.wav',t,1200,,,,,12,1,97,3,,,,,344.1900863000192,344.6722485400096,345.17168700002367,,,,,,counter1,001,2023-10-19_16h07.13.981,Oddball_task,2022.2.5,None,
standard,soundFiles/250Hz_44100Hz_16bit_05sec.wav',None,250,,,,,12,2,98,2,,,,,345.18775370001094,345.6708473400504,346.174137300055,,,,,,counter1,001,2023-10-19_16h07.13.981,Oddball_task,2022.2.5,None,
standard,soundFiles/250Hz_44100Hz_16bit_05sec.wav',None,250,,,,,12,3,99,7,,,,,346.1869393000379,346.6702033400361,,,,,,,counter1,001,2023-10-19_16h07.13.981,Oddball_task,2022.2.5,None,
target,soundFiles/1200Hz_-3dBFS_3s_44.1kHz.wav',t,1200,,,,,12,4,100,3,,,,,347.186537600006,347.6699639400176,,,,,,,counter1,001,2023-10-19_16h07.13.981,Oddball_task,2022.2.5,None,
standard,soundFiles/250Hz_44100Hz_16bit_05sec.wav',None,250,,,,,12,5,101,6,,,,,348.1857916000299,348.6680849400291,,,,,,,counter1,001,2023-10-19_16h07.13.981,Oddball_task,2022.2.5,None,
standard,soundFiles/250Hz_44100Hz_16bit_05sec.wav',None,250,,,,,12,6,102,1,,,,,349.18385940004373,349.66708664005273,,,,,,,counter1,001,2023-10-19_16h07.13.981,Oddball_task,2022.2.5,None,
standard,soundFiles/250Hz_44100Hz_16bit_05sec.wav',None,250,,,,,12,7,103,1,,,,,350.1830787000363,350.6668923400284,351.1653411000152,,,,,,counter1,001,2023-10-19_16h07.13.981,Oddball_task,2022.2.5,None,
standard,soundFiles/250Hz_44100Hz_16bit_05sec.wav',None,250,,,,,13,0,104,0,,,,,351.18388130003586,351.6707603400282,,,,,,,counter1,001,2023-10-19_16h07.13.981,Oddball_task,2022.2.5,None,
standard,soundFiles/250Hz_44100Hz_16bit_05sec.wav',None,250,,,,,13,1,105,0,,,,,352.1810210000258,352.6650776400056,,,,,,353.1839147999999,counter1,001,2023-10-19_16h07.13.981,Oddball_task,2022.2.5,None,
standard,soundFiles/250Hz_44100Hz_16bit_05sec.wav',None,250,,,,,13,2,106,6,,,,,353.1839147999999,353.68333464002353,,,,,,,counter1,001,2023-10-19_16h07.13.981,Oddball_task,2022.2.5,None,
standard,soundFiles/250Hz_44100Hz_16bit_05sec.wav',None,250,,,,,13,3,107,2,,,,,354.1960745000397,354.6793824400229,,,,,,,counter1,001,2023-10-19_16h07.13.981,Oddball_task,2022.2.5,None,
standard,soundFiles/250Hz_44100Hz_16bit_05sec.wav',None,250,,,,,13,4,108,4,,,,,355.19472950004274,355.6801596400037,,,,,,,counter1,001,2023-10-19_16h07.13.981,Oddball_task,2022.2.5,None,
standard,soundFiles/250Hz_44100Hz_16bit_05sec.wav',None,250,,,,,13,5,109,1,,,,,356.1943094000453,356.67758384000626,,,,,,,counter1,001,2023-10-19_16h07.13.981,Oddball_task,2022.2.5,None,
standard,soundFiles/250Hz_44100Hz_16bit_05sec.wav',None,250,,,,,13,6,110,5,,,,,357.1960859000101,357.67931064000004,,,,,,,counter1,001,2023-10-19_16h07.13.981,Oddball_task,2022.2.5,None,
standard,soundFiles/250Hz_44100Hz_16bit_05sec.wav',None,250,,,,,13,7,111,4,,,,,358.19462180003757,358.67581114001223,359.17546760005644,,,,,,counter1,001,2023-10-19_16h07.13.981,Oddball_task,2022.2.5,None,
standard,soundFiles/250Hz_44100Hz_16bit_05sec.wav',None,250,,,,,14,0,112,1,,,,,359.19189850002294,359.6750267400348,,,,,,,counter1,001,2023-10-19_16h07.13.981,Oddball_task,2022.2.5,None,
standard,soundFiles/250Hz_44100Hz_16bit_05sec.wav',None,250,,,,,14,1,113,0,,,,,360.19105430005584,360.6756410399976,,,,,,,counter1,001,2023-10-19_16h07.13.981,Oddball_task,2022.2.5,None,
standard,soundFiles/250Hz_44100Hz_16bit_05sec.wav',None,250,,,,,14,2,114,4,,,,,361.189831100055,361.6740259400394,,,,,,,counter1,001,2023-10-19_16h07.13.981,Oddball_task,2022.2.5,None,
standard,soundFiles/250Hz_44100Hz_16bit_05sec.wav',None,250,,,,,14,3,115,6,,,,,362.1885139000369,362.6728108400421,,,,,,,counter1,001,2023-10-19_16h07.13.981,Oddball_task,2022.2.5,None,
standard,soundFiles/250Hz_44100Hz_16bit_05sec.wav',None,250,,,,,14,4,116,1,,,,,363.1877104000305,363.67592754002544,,,,,,,counter1,001,2023-10-19_16h07.13.981,Oddball_task,2022.2.5,None,
standard,soundFiles/250Hz_44100Hz_16bit_05sec.wav',None,250,,,,,14,5,117,5,,,,,364.18684020004,364.66996004004613,365.17020200000843,,,,,,counter1,001,2023-10-19_16h07.13.981,Oddball_task,2022.2.5,None,
standard,soundFiles/250Hz_44100Hz_16bit_05sec.wav',None,250,,,,,14,6,118,6,,,,,365.18661580001935,365.66925264001475,366.1688815000234,,,,,,counter1,001,2023-10-19_16h07.13.981,Oddball_task,2022.2.5,None,
standard,soundFiles/250Hz_44100Hz_16bit_05sec.wav',None,250,,,,,14,7,119,5,,,,,366.18652400001884,366.66791344000376,367.16852690000087,,,,,,counter1,001,2023-10-19_16h07.13.981,Oddball_task,2022.2.5,None,
standard,soundFiles/250Hz_44100Hz_16bit_05sec.wav',None,250,,,,,15,0,120,2,,,,,367.1862045000307,367.669390140014,,,,,,,counter1,001,2023-10-19_16h07.13.981,Oddball_task,2022.2.5,None,
standard,soundFiles/250Hz_44100Hz_16bit_05sec.wav',None,250,,,,,15,1,121,2,,,,,368.1860775000532,368.6662376400491,369.1658487000386,,,,,,counter1,001,2023-10-19_16h07.13.981,Oddball_task,2022.2.5,None,
standard,soundFiles/250Hz_44100Hz_16bit_05sec.wav',None,250,,,,,15,2,122,0,,,,,369.182624500012,369.66577174005215,370.164781200001,,,,,,counter1,001,2023-10-19_16h07.13.981,Oddball_task,2022.2.5,None,
standard,soundFiles/250Hz_44100Hz_16bit_05sec.wav',None,250,,,,,15,3,123,4,,,,,370.18358150002314,370.66833674002555,,,,,,,counter1,001,2023-10-19_16h07.13.981,Oddball_task,2022.2.5,None,
standard,soundFiles/250Hz_44100Hz_16bit_05sec.wav',None,250,,,,,15,4,124,1,,,,,371.2000531000085,371.666488840041,,,,,,,counter1,001,2023-10-19_16h07.13.981,Oddball_task,2022.2.5,None,
standard,soundFiles/250Hz_44100Hz_16bit_05sec.wav',None,250,,,,,15,5,125,1,,,,,372.19659280002816,372.6800499400415,373.1809345000074,,,,,,counter1,001,2023-10-19_16h07.13.981,Oddball_task,2022.2.5,None,
target,soundFiles/1200Hz_-3dBFS_3s_44.1kHz.wav',t,1200,,,,,15,6,126,3,,,,,373.1958670000313,373.67810344000463,374.17814300005557,,,,,,counter1,001,2023-10-19_16h07.13.981,Oddball_task,2022.2.5,None,
standard,soundFiles/250Hz_44100Hz_16bit_05sec.wav',None,250,,,,,15,7,127,6,,,,,374.19463430001633,374.6771604400419,375.17629620002117,,,,,,counter1,001,2023-10-19_16h07.13.981,Oddball_task,2022.2.5,None,
standard,soundFiles/250Hz_44100Hz_16bit_05sec.wav',None,250,,,,,16,0,128,2,,,,,375.19331920001423,375.6764112400415,376.1765673000482,,,,,,counter1,001,2023-10-19_16h07.13.981,Oddball_task,2022.2.5,None,
standard,soundFiles/250Hz_44100Hz_16bit_05sec.wav',None,250,,,,,16,1,129,6,,,,,376.1934306000476,376.67533374004415,,,,,,,counter1,001,2023-10-19_16h07.13.981,Oddball_task,2022.2.5,None,
standard,soundFiles/250Hz_44100Hz_16bit_05sec.wav',None,250,,,,,16,2,130,5,,,,,377.19210500002373,377.6746606400411,378.17429890000494,,,,,,counter1,001,2023-10-19_16h07.13.981,Oddball_task,2022.2.5,None,
standard,soundFiles/250Hz_44100Hz_16bit_05sec.wav',None,250,,,,,16,3,131,6,,,,,378.1901229000068,378.67357754000113,,,,,,,counter1,001,2023-10-19_16h07.13.981,Oddball_task,2022.2.5,None,
standard,soundFiles/250Hz_44100Hz_16bit_05sec.wav',None,250,,,,,16,4,132,0,,,,,379.1919248000486,379.6726671400538,,,,,,,counter1,001,2023-10-19_16h07.13.981,Oddball_task,2022.2.5,None,
standard,soundFiles/250Hz_44100Hz_16bit_05sec.wav',None,250,,,,,16,5,133,4,,,,,380.18876510002883,380.6715037400427,,,,,,,counter1,001,2023-10-19_16h07.13.981,Oddball_task,2022.2.5,None,
standard,soundFiles/250Hz_44100Hz_16bit_05sec.wav',None,250,,,,,16,6,134,4,,,,,381.18843030004064,381.6715927400219,,,,,,,counter1,001,2023-10-19_16h07.13.981,Oddball_task,2022.2.5,None,
standard,soundFiles/250Hz_44100Hz_16bit_05sec.wav',None,250,,,,,16,7,135,6,,,,,382.1868146000197,382.6703181400371,,,,,,,counter1,001,2023-10-19_16h07.13.981,Oddball_task,2022.2.5,None,
standard,soundFiles/250Hz_44100Hz_16bit_05sec.wav',None,250,,,,,17,0,136,4,,,,,383.1854636000353,383.6692387400253,384.1682702000253,,,,,,counter1,001,2023-10-19_16h07.13.981,Oddball_task,2022.2.5,None,
standard,soundFiles/250Hz_44100Hz_16bit_05sec.wav',None,250,,,,,17,1,137,5,,,,,384.18898340000305,384.67247354003484,,,,,,,counter1,001,2023-10-19_16h07.13.981,Oddball_task,2022.2.5,None,
target,soundFiles/1200Hz_-3dBFS_3s_44.1kHz.wav',t,1200,,,,,17,2,138,3,,,,,385.1840173000237,385.6671043400129,386.1666229000548,,,,,,counter1,001,2023-10-19_16h07.13.981,Oddball_task,2022.2.5,None,
standard,soundFiles/250Hz_44100Hz_16bit_05sec.wav',None,250,,,,,17,3,139,0,,,,,386.1828054000507,386.6661441400356,387.16733680001926,,,,,,counter1,001,2023-10-19_16h07.13.981,Oddball_task,2022.2.5,None,
standard,soundFiles/250Hz_44100Hz_16bit_05sec.wav',None,250,,,,,17,4,140,5,,,,,387.18216419999953,387.66649284001323,,,,,,,counter1,001,2023-10-19_16h07.13.981,Oddball_task,2022.2.5,None,
standard,soundFiles/250Hz_44100Hz_16bit_05sec.wav',None,250,,,,,17,5,141,1,,,,,388.1808416999993,388.6644671400136,389.1657016000245,,,,,,counter1,001,2023-10-19_16h07.13.981,Oddball_task,2022.2.5,None,
standard,soundFiles/250Hz_44100Hz_16bit_05sec.wav',None,250,,,,,17,6,142,7,,,,,389.1801009000046,389.6815542400291,,,,,,390.17981470003724,counter1,001,2023-10-19_16h07.13.981,Oddball_task,2022.2.5,None,
standard,soundFiles/250Hz_44100Hz_16bit_05sec.wav',None,250,,,,,17,7,143,4,,,,,390.17981470003724,390.6788152400113,391.1802494000294,,,,,,counter1,001,2023-10-19_16h07.13.981,Oddball_task,2022.2.5,None,
standard,soundFiles/250Hz_44100Hz_16bit_05sec.wav',None,250,,,,,18,0,144,0,,,,,391.1953865000396,391.66538494001725,,,,,,,counter1,001,2023-10-19_16h07.13.981,Oddball_task,2022.2.5,None,
standard,soundFiles/250Hz_44100Hz_16bit_05sec.wav',None,250,,,,,18,1,145,4,,,,,392.1944142000284,392.67727264002315,393.1758853000356,,,,,,counter1,001,2023-10-19_16h07.13.981,Oddball_task,2022.2.5,None,
standard,soundFiles/250Hz_44100Hz_16bit_05sec.wav',None,250,,,,,18,2,146,2,,,,,393.1930789000471,393.67933333999827,,,,,,,counter1,001,2023-10-19_16h07.13.981,Oddball_task,2022.2.5,None,
standard,soundFiles/250Hz_44100Hz_16bit_05sec.wav',None,250,,,,,18,3,147,6,,,,,394.1962514000479,394.6755780400417,395.17556690005586,,,,,,counter1,001,2023-10-19_16h07.13.981,Oddball_task,2022.2.5,None,
target,soundFiles/1200Hz_-3dBFS_3s_44.1kHz.wav',t,1200,,,,,18,4,148,3,,,,,395.19299630000023,395.67782084000646,,,,,,,counter1,001,2023-10-19_16h07.13.981,Oddball_task,2022.2.5,None,
standard,soundFiles/250Hz_44100Hz_16bit_05sec.wav',None,250,,,,,18,5,149,1,,,,,396.19212490000064,396.67356973999995,397.17267150001135,,,,,,counter1,001,2023-10-19_16h07.13.981,Oddball_task,2022.2.5,None,
target,soundFiles/1200Hz_-3dBFS_3s_44.1kHz.wav',t,1200,,,,,18,6,150,3,,,,,397.19128090003505,397.67231104001985,398.1718491000356,,,,,,counter1,001,2023-10-19_16h07.13.981,Oddball_task,2022.2.5,None,
standard,soundFiles/250Hz_44100Hz_16bit_05sec.wav',None,250,,,,,18,7,151,6,,,,,398.19241800002055,398.67142434002017,399.1738527000416,,,,,,counter1,001,2023-10-19_16h07.13.981,Oddball_task,2022.2.5,None,
standard,soundFiles/250Hz_44100Hz_16bit_05sec.wav',None,250,,,,,19,0,152,6,,,,,399.1885158000514,399.6704300400161,,,,,,,counter1,001,2023-10-19_16h07.13.981,Oddball_task,2022.2.5,None,
standard,soundFiles/250Hz_44100Hz_16bit_05sec.wav',None,250,,,,,19,1,153,2,,,,,400.18685230001574,400.6698724400194,,,,,,,counter1,001,2023-10-19_16h07.13.981,Oddball_task,2022.2.5,None,
standard,soundFiles/250Hz_44100Hz_16bit_05sec.wav',None,250,,,,,19,2,154,7,,,,,401.1900795000256,401.67335524005466,,,,,,,counter1,001,2023-10-19_16h07.13.981,Oddball_task,2022.2.5,None,
standard,soundFiles/250Hz_44100Hz_16bit_05sec.wav',None,250,,,,,19,3,155,2,,,,,402.18488360004267,402.6680688400229,,,,,,,counter1,001,2023-10-19_16h07.13.981,Oddball_task,2022.2.5,None,
standard,soundFiles/250Hz_44100Hz_16bit_05sec.wav',None,250,,,,,19,4,156,7,,,,,403.18357350002043,403.6683167400479,,,,,,,counter1,001,2023-10-19_16h07.13.981,Oddball_task,2022.2.5,None,
standard,soundFiles/250Hz_44100Hz_16bit_05sec.wav',None,250,,,,,19,5,157,5,,,,,404.1830072000157,404.6662130400364,,,,,,,counter1,001,2023-10-19_16h07.13.981,Oddball_task,2022.2.5,None,
standard,soundFiles/250Hz_44100Hz_16bit_05sec.wav',None,250,,,,,19,6,158,6,,,,,405.1820685000275,405.6651534400007,,,,,,,counter1,001,2023-10-19_16h07.13.981,Oddball_task,2022.2.5,None,
standard,soundFiles/250Hz_44100Hz_16bit_05sec.wav',None,250,,,,,19,7,159,1,,,,,406.1986473000143,406.66620974001125,407.16336590005085,,,,,,counter1,001,2023-10-19_16h07.13.981,Oddball_task,2022.2.5,None,
standard,soundFiles/250Hz_44100Hz_16bit_05sec.wav',None,250,,,,,20,0,160,0,,,,,407.1975280000479,407.68171264001285,,,,,,,counter1,001,2023-10-19_16h07.13.981,Oddball_task,2022.2.5,None,
standard,soundFiles/250Hz_44100Hz_16bit_05sec.wav',None,250,,,,,20,1,161,2,,,,,408.1986633000197,408.6790742400044,,,,,,,counter1,001,2023-10-19_16h07.13.981,Oddball_task,2022.2.5,None,
target,soundFiles/1200Hz_-3dBFS_3s_44.1kHz.wav',t,1200,,,,,20,2,162,3,,,,,409.19558090000646,409.6783609400445,,,,,,,counter1,001,2023-10-19_16h07.13.981,Oddball_task,2022.2.5,None,
standard,soundFiles/250Hz_44100Hz_16bit_05sec.wav',None,250,,,,,20,3,163,1,,,,,410.194827600033,410.6779281400086,,,,,,,counter1,001,2023-10-19_16h07.13.981,Oddball_task,2022.2.5,None,
standard,soundFiles/250Hz_44100Hz_16bit_05sec.wav',None,250,,,,,20,4,164,6,,,,,411.1932655000128,411.6757216400292,,,,,,,counter1,001,2023-10-19_16h07.13.981,Oddball_task,2022.2.5,None,
standard,soundFiles/250Hz_44100Hz_16bit_05sec.wav',None,250,,,,,20,5,165,2,,,,,412.1920771000441,412.67679014001624,,,,,,,counter1,001,2023-10-19_16h07.13.981,Oddball_task,2022.2.5,None,
standard,soundFiles/250Hz_44100Hz_16bit_05sec.wav',None,250,,,,,20,6,166,5,,,,,413.19087910000235,413.6770293400332,,,,,,,counter1,001,2023-10-19_16h07.13.981,Oddball_task,2022.2.5,None,
standard,soundFiles/250Hz_44100Hz_16bit_05sec.wav',None,250,,,,,20,7,167,4,,,,,414.1914458000101,414.67517664001207,,,,,,,counter1,001,2023-10-19_16h07.13.981,Oddball_task,2022.2.5,None,
standard,soundFiles/250Hz_44100Hz_16bit_05sec.wav',None,250,,,,,21,0,168,7,,,,,415.1913304000045,415.6725067400548,416.1719345000456,,,,,,counter1,001,2023-10-19_16h07.13.981,Oddball_task,2022.2.5,None,
standard,soundFiles/250Hz_44100Hz_16bit_05sec.wav',None,250,,,,,21,1,169,6,,,,,416.1882371000247,416.671872840001,,,,,,,counter1,001,2023-10-19_16h07.13.981,Oddball_task,2022.2.5,None,
standard,soundFiles/250Hz_44100Hz_16bit_05sec.wav',None,250,,,,,21,2,170,4,,,,,417.1870734000113,417.67144504000316,,,,,,,counter1,001,2023-10-19_16h07.13.981,Oddball_task,2022.2.5,None,
standard,soundFiles/250Hz_44100Hz_16bit_05sec.wav',None,250,,,,,21,3,171,5,,,,,418.1860185000114,418.6695112400048,419.17227850004565,,,,,,counter1,001,2023-10-19_16h07.13.981,Oddball_task,2022.2.5,None,
standard,soundFiles/250Hz_44100Hz_16bit_05sec.wav',None,250,,,,,21,4,172,6,,,,,419.18510170001537,419.66847234001034,420.1679162000073,,,,,,counter1,001,2023-10-19_16h07.13.981,Oddball_task,2022.2.5,None,
standard,soundFiles/250Hz_44100Hz_16bit_05sec.wav',None,250,,,,,21,5,173,7,,,,,420.1859396000509,420.6676536400046,421.1704445000505,,,,,,counter1,001,2023-10-19_16h07.13.981,Oddball_task,2022.2.5,None,
standard,soundFiles/250Hz_44100Hz_16bit_05sec.wav',None,250,,,,,21,6,174,7,,,,,421.1832701000385,421.6667501400516,,,,,,,counter1,001,2023-10-19_16h07.13.981,Oddball_task,2022.2.5,None,
standard,soundFiles/250Hz_44100Hz_16bit_05sec.wav',None,250,,,,,21,7,175,7,,,,,422.1830339000444,422.6655573400494,423.1660529000219,,,,,,counter1,001,2023-10-19_16h07.13.981,Oddball_task,2022.2.5,None,
standard,soundFiles/250Hz_44100Hz_16bit_05sec.wav',None,250,,,,,22,0,176,7,,,,,423.18212170002516,423.66484723999747,424.16583360004006,,,,,,counter1,001,2023-10-19_16h07.13.981,Oddball_task,2022.2.5,None,
standard,soundFiles/250Hz_44100Hz_16bit_05sec.wav',None,250,,,,,22,1,177,6,,,,,424.182778300019,424.6689270400384,,,,,,,counter1,001,2023-10-19_16h07.13.981,Oddball_task,2022.2.5,None,
standard,soundFiles/250Hz_44100Hz_16bit_05sec.wav',None,250,,,,,22,2,178,1,,,,,425.1801765000564,425.6796437400335,,,,,,,counter1,001,2023-10-19_16h07.13.981,Oddball_task,2022.2.5,None,
target,soundFiles/1200Hz_-3dBFS_3s_44.1kHz.wav',t,1200,,,,,22,3,179,3,,,,,426.17885300004855,426.664695340005,,,,,,427.1804094000254,counter1,001,2023-10-19_16h07.13.981,Oddball_task,2022.2.5,None,
standard,soundFiles/250Hz_44100Hz_16bit_05sec.wav',None,250,,,,,22,4,180,2,,,,,427.1804094000254,427.6780533400306,428.1801933000097,,,,,,counter1,001,2023-10-19_16h07.13.981,Oddball_task,2022.2.5,None,
standard,soundFiles/250Hz_44100Hz_16bit_05sec.wav',None,250,,,,,22,5,181,7,,,,,428.19353830005275,428.6800416400365,,,,,,,counter1,001,2023-10-19_16h07.13.981,Oddball_task,2022.2.5,None,
standard,soundFiles/250Hz_44100Hz_16bit_05sec.wav',None,250,,,,,22,6,182,4,,,,,429.19417530001374,429.6754252400424,430.17572370002745,,,,,,counter1,001,2023-10-19_16h07.13.981,Oddball_task,2022.2.5,None,
standard,soundFiles/250Hz_44100Hz_16bit_05sec.wav',None,250,,,,,22,7,183,0,,,,,430.1922217000392,430.6764287400001,,,,,,,counter1,001,2023-10-19_16h07.13.981,Oddball_task,2022.2.5,None,
standard,soundFiles/250Hz_44100Hz_16bit_05sec.wav',None,250,,,,,23,0,184,7,,,,,431.19140480004717,431.6741646400478,,,,,,,counter1,001,2023-10-19_16h07.13.981,Oddball_task,2022.2.5,None,
standard,soundFiles/250Hz_44100Hz_16bit_05sec.wav',None,250,,,,,23,1,185,1,,,,,432.1908585000201,432.67306804002146,,,,,,,counter1,001,2023-10-19_16h07.13.981,Oddball_task,2022.2.5,None,
standard,soundFiles/250Hz_44100Hz_16bit_05sec.wav',None,250,,,,,23,2,186,1,,,,,433.1891952000442,433.67265464001684,,,,,,,counter1,001,2023-10-19_16h07.13.981,Oddball_task,2022.2.5,None,
standard,soundFiles/250Hz_44100Hz_16bit_05sec.wav',None,250,,,,,23,3,187,4,,,,,434.1885364000336,434.6715202400519,,,,,,,counter1,001,2023-10-19_16h07.13.981,Oddball_task,2022.2.5,None,
standard,soundFiles/250Hz_44100Hz_16bit_05sec.wav',None,250,,,,,23,4,188,1,,,,,435.18763260002015,435.6701525399985,,,,,,,counter1,001,2023-10-19_16h07.13.981,Oddball_task,2022.2.5,None,
standard,soundFiles/250Hz_44100Hz_16bit_05sec.wav',None,250,,,,,23,5,189,2,,,,,436.18652450002264,436.66973314000643,437.17018490005285,,,,,,counter1,001,2023-10-19_16h07.13.981,Oddball_task,2022.2.5,None,
standard,soundFiles/250Hz_44100Hz_16bit_05sec.wav',None,250,,,,,23,6,190,2,,,,,437.18661630002316,437.6707313400402,,,,,,,counter1,001,2023-10-19_16h07.13.981,Oddball_task,2022.2.5,None,
standard,soundFiles/250Hz_44100Hz_16bit_05sec.wav',None,250,,,,,23,7,191,1,,,,,438.186075500038,438.6674580400286,439.16696940001566,,,,,,counter1,001,2023-10-19_16h07.13.981,Oddball_task,2022.2.5,None,
target,soundFiles/1200Hz_-3dBFS_3s_44.1kHz.wav',t,1200,,,,,24,0,192,3,,,,,439.18379650003044,439.6668201400025,440.16610500001116,,,,,,counter1,001,2023-10-19_16h07.13.981,Oddball_task,2022.2.5,None,
standard,soundFiles/250Hz_44100Hz_16bit_05sec.wav',None,250,,,,,24,1,193,1,,,,,440.1827156000072,440.66678054005024,,,,,,,counter1,001,2023-10-19_16h07.13.981,Oddball_task,2022.2.5,None,
standard,soundFiles/250Hz_44100Hz_16bit_05sec.wav',None,250,,,,,24,2,194,0,,,,,441.1821865000529,441.66470704003586,442.1663220000337,,,,,,counter1,001,2023-10-19_16h07.13.981,Oddball_task,2022.2.5,None,
standard,soundFiles/250Hz_44100Hz_16bit_05sec.wav',None,250,,,,,24,3,195,4,,,,,442.18283140001586,442.6642376400123,443.1639826000319,,,,,,counter1,001,2023-10-19_16h07.13.981,Oddball_task,2022.2.5,None,
standard,soundFiles/250Hz_44100Hz_16bit_05sec.wav',None,250,,,,,24,4,196,0,,,,,443.1970913000405,443.67999734004843,,,,,,,counter1,001,2023-10-19_16h07.13.981,Oddball_task,2022.2.5,None,
target,soundFiles/1200Hz_-3dBFS_3s_44.1kHz.wav',t,1200,,,,,24,5,197,3,,,,,444.19534420000855,444.6805762400327,445.17841079999926,,,,,,counter1,001,2023-10-19_16h07.13.981,Oddball_task,2022.2.5,None,
standard,soundFiles/250Hz_44100Hz_16bit_05sec.wav',None,250,,,,,24,6,198,0,,,,,445.1946641000104,445.6776499400439,446.1773567000055,,,,,,counter1,001,2023-10-19_16h07.13.981,Oddball_task,2022.2.5,None,
target,soundFiles/1200Hz_-3dBFS_3s_44.1kHz.wav',t,1200,,,,,24,7,199,3,,,,,446.1935208000359,446.67715804002364,447.176488600031,,,,,,counter1,001,2023-10-19_16h07.13.981,Oddball_task,2022.2.5,None,
standard,soundFiles/250Hz_44100Hz_16bit_05sec.wav',None,250,,,,,25,0,200,6,,,,,447.19564460002584,447.67579374005436,448.17895980004687,,,,,,counter1,001,2023-10-19_16h07.13.981,Oddball_task,2022.2.5,None,
standard,soundFiles/250Hz_44100Hz_16bit_05sec.wav',None,250,,,,,25,1,201,7,,,,,448.191818100051,448.6775762400066,,,,,,,counter1,001,2023-10-19_16h07.13.981,Oddball_task,2022.2.5,None,
standard,soundFiles/250Hz_44100Hz_16bit_05sec.wav',None,250,,,,,25,2,202,7,,,,,449.19094530004077,449.6743545400386,450.17340580001473,,,,,,counter1,001,2023-10-19_16h07.13.981,Oddball_task,2022.2.5,None,
standard,soundFiles/250Hz_44100Hz_16bit_05sec.wav',None,250,,,,,25,3,203,5,,,,,450.1900573000312,450.6764371400059,,,,,,,counter1,001,2023-10-19_16h07.13.981,Oddball_task,2022.2.5,None,
target,soundFiles/1200Hz_-3dBFS_3s_44.1kHz.wav',t,1200,,,,,25,4,204,3,,,,,451.1917931000353,451.6732806400105,452.17101620003814,,,,,,counter1,001,2023-10-19_16h07.13.981,Oddball_task,2022.2.5,None,
standard,soundFiles/250Hz_44100Hz_16bit_05sec.wav',None,250,,,,,25,5,205,2,,,,,452.19133190001594,452.6722664400295,,,,,,,counter1,001,2023-10-19_16h07.13.981,Oddball_task,2022.2.5,None,
standard,soundFiles/250Hz_44100Hz_16bit_05sec.wav',None,250,,,,,25,6,206,1,,,,,453.1873404000071,453.670006940054,,,,,,,counter1,001,2023-10-19_16h07.13.981,Oddball_task,2022.2.5,None,
target,soundFiles/1200Hz_-3dBFS_3s_44.1kHz.wav',t,1200,,,,,25,7,207,3,,,,,454.1861026000115,454.67016574004083,,,,,,,counter1,001,2023-10-19_16h07.13.981,Oddball_task,2022.2.5,None,
standard,soundFiles/250Hz_44100Hz_16bit_05sec.wav',None,250,,,,,26,0,208,2,,,,,455.1853365999996,455.6685865400068,,,,,,,counter1,001,2023-10-19_16h07.13.981,Oddball_task,2022.2.5,None,
standard,soundFiles/250Hz_44100Hz_16bit_05sec.wav',None,250,,,,,26,1,209,6,,,,,456.1843146000174,456.6674758400477,,,,,,,counter1,001,2023-10-19_16h07.13.981,Oddball_task,2022.2.5,None,
standard,soundFiles/250Hz_44100Hz_16bit_05sec.wav',None,250,,,,,26,2,210,0,,,,,457.18359780003084,457.6672652400157,458.1684370000148,,,,,,counter1,001,2023-10-19_16h07.13.981,Oddball_task,2022.2.5,None,
standard,soundFiles/250Hz_44100Hz_16bit_05sec.wav',None,250,,,,,26,3,211,4,,,,,458.1820729000028,458.66744624005514,,,,,,,counter1,001,2023-10-19_16h07.13.981,Oddball_task,2022.2.5,None,
standard,soundFiles/250Hz_44100Hz_16bit_05sec.wav',None,250,,,,,26,4,212,2,,,,,459.18287360004615,459.6646630400501,,,,,,,counter1,001,2023-10-19_16h07.13.981,Oddball_task,2022.2.5,None,
standard,soundFiles/250Hz_44100Hz_16bit_05sec.wav',None,250,,,,,26,5,213,7,,,,,460.19721840001876,460.66471743999864,,,,,,,counter1,001,2023-10-19_16h07.13.981,Oddball_task,2022.2.5,None,
standard,soundFiles/250Hz_44100Hz_16bit_05sec.wav',None,250,,,,,26,6,214,5,,,,,461.1963748999988,461.67984854002134,,,,,,,counter1,001,2023-10-19_16h07.13.981,Oddball_task,2022.2.5,None,
standard,soundFiles/250Hz_44100Hz_16bit_05sec.wav',None,250,,,,,26,7,215,0,,,,,462.19818320003105,462.6814185400435,,,,,,,counter1,001,2023-10-19_16h07.13.981,Oddball_task,2022.2.5,None,
standard,soundFiles/250Hz_44100Hz_16bit_05sec.wav',None,250,,,,,27,0,216,4,,,,,463.1944083000417,463.67842114003724,,,,,,,counter1,001,2023-10-19_16h07.13.981,Oddball_task,2022.2.5,None,
standard,soundFiles/250Hz_44100Hz_16bit_05sec.wav',None,250,,,,,27,1,217,4,,,,,464.1937198000378,464.67695004001143,,,,,,,counter1,001,2023-10-19_16h07.13.981,Oddball_task,2022.2.5,None,
target,soundFiles/1200Hz_-3dBFS_3s_44.1kHz.wav',t,1200,,,,,27,2,218,3,,,,,465.19272640004056,465.6755211400159,,,,,,,counter1,001,2023-10-19_16h07.13.981,Oddball_task,2022.2.5,None,
standard,soundFiles/250Hz_44100Hz_16bit_05sec.wav',None,250,,,,,27,3,219,0,,,,,466.19156010000734,466.6778957400529,,,,,,,counter1,001,2023-10-19_16h07.13.981,Oddball_task,2022.2.5,None,
standard,soundFiles/250Hz_44100Hz_16bit_05sec.wav',None,250,,,,,27,4,220,5,,,,,467.1909450000385,467.67384274004144,,,,,,,counter1,001,2023-10-19_16h07.13.981,Oddball_task,2022.2.5,None,
standard,soundFiles/250Hz_44100Hz_16bit_05sec.wav',None,250,,,,,27,5,221,4,,,,,468.19005920004565,468.67365434000385,,,,,,,counter1,001,2023-10-19_16h07.13.981,Oddball_task,2022.2.5,None,
standard,soundFiles/250Hz_44100Hz_16bit_05sec.wav',None,250,,,,,27,6,222,0,,,,,469.18840700003784,469.6721339400101,470.17180110001937,,,,,,counter1,001,2023-10-19_16h07.13.981,Oddball_task,2022.2.5,None,
standard,soundFiles/250Hz_44100Hz_16bit_05sec.wav',None,250,,,,,27,7,223,6,,,,,470.18762820004486,470.670887640008,471.17230230005225,,,,,,counter1,001,2023-10-19_16h07.13.981,Oddball_task,2022.2.5,None,
standard,soundFiles/250Hz_44100Hz_16bit_05sec.wav',None,250,,,,,28,0,224,2,,,,,471.1865902999998,471.67326594001497,,,,,,,counter1,001,2023-10-19_16h07.13.981,Oddball_task,2022.2.5,None,
standard,soundFiles/250Hz_44100Hz_16bit_05sec.wav',None,250,,,,,28,1,225,5,,,,,472.18609990004916,472.6695666400192,473.16891580005176,,,,,,counter1,001,2023-10-19_16h07.13.981,Oddball_task,2022.2.5,None,
standard,soundFiles/250Hz_44100Hz_16bit_05sec.wav',None,250,,,,,28,2,226,6,,,,,473.1851327000186,473.67026733999955,,,,,,,counter1,001,2023-10-19_16h07.13.981,Oddball_task,2022.2.5,None,
target,soundFiles/1200Hz_-3dBFS_3s_44.1kHz.wav',t,1200,,,,,28,3,227,3,,,,,474.18675450002775,474.6669927400362,,,,,,,counter1,001,2023-10-19_16h07.13.981,Oddball_task,2022.2.5,None,
standard,soundFiles/250Hz_44100Hz_16bit_05sec.wav',None,250,,,,,28,4,228,5,,,,,475.18581890000496,475.6671185400046,,,,,,,counter1,001,2023-10-19_16h07.13.981,Oddball_task,2022.2.5,None,
standard,soundFiles/250Hz_44100Hz_16bit_05sec.wav',None,250,,,,,28,5,229,5,,,,,476.1827276000404,476.6665927400172,,,,,,,counter1,001,2023-10-19_16h07.13.981,Oddball_task,2022.2.5,None,
standard,soundFiles/250Hz_44100Hz_16bit_05sec.wav',None,250,,,,,28,6,230,0,,,,,477.19775089999894,477.6650267400255,,,,,,,counter1,001,2023-10-19_16h07.13.981,Oddball_task,2022.2.5,None,
standard,soundFiles/250Hz_44100Hz_16bit_05sec.wav',None,250,,,,,28,7,231,0,,,,,478.1973710000166,478.6639846400067,,,,,,,counter1,001,2023-10-19_16h07.13.981,Oddball_task,2022.2.5,None,
standard,soundFiles/250Hz_44100Hz_16bit_05sec.wav',None,250,,,,,29,0,232,1,,,,,479.1957510000211,479.68050984005095,,,,,,,counter1,001,2023-10-19_16h07.13.981,Oddball_task,2022.2.5,None,
standard,soundFiles/250Hz_44100Hz_16bit_05sec.wav',None,250,,,,,29,1,233,6,,,,,480.1964827000047,480.6782738400216,,,,,,,counter1,001,2023-10-19_16h07.13.981,Oddball_task,2022.2.5,None,
target,soundFiles/1200Hz_-3dBFS_3s_44.1kHz.wav',t,1200,,,,,29,2,234,3,,,,,481.1778498000349,481.6772471400036,,,,,,482.17742370005,counter1,001,2023-10-19_16h07.13.981,Oddball_task,2022.2.5,None,
standard,soundFiles/250Hz_44100Hz_16bit_05sec.wav',None,250,,,,,29,3,235,0,,,,,482.17742370005,482.67725844003144,,,,,,,counter1,001,2023-10-19_16h07.13.981,Oddball_task,2022.2.5,None,
target,soundFiles/1200Hz_-3dBFS_3s_44.1kHz.wav',t,1200,,,,,29,4,236,3,,,,,483.1925077000051,483.67711764000705,,,,,,,counter1,001,2023-10-19_16h07.13.981,Oddball_task,2022.2.5,None,
standard,soundFiles/250Hz_44100Hz_16bit_05sec.wav',None,250,,,,,29,5,237,1,,,,,484.1955799999996,484.6754381400242,,,,,,,counter1,001,2023-10-19_16h07.13.981,Oddball_task,2022.2.5,None,
standard,soundFiles/250Hz_44100Hz_16bit_05sec.wav',None,250,,,,,29,6,238,1,,,,,485.1906420000014,485.67621704001795,,,,,,,counter1,001,2023-10-19_16h07.13.981,Oddball_task,2022.2.5,None,
standard,soundFiles/250Hz_44100Hz_16bit_05sec.wav',None,250,,,,,29,7,239,7,,,,,486.1922795000137,486.67243704004795,,,,,,,counter1,001,2023-10-19_16h07.13.981,Oddball_task,2022.2.5,None,
standard,soundFiles/250Hz_44100Hz_16bit_05sec.wav',None,250,,,,,30,0,240,6,,,,,487.1914220000035,487.6721554399992,,,,,,,counter1,001,2023-10-19_16h07.13.981,Oddball_task,2022.2.5,None,
standard,soundFiles/250Hz_44100Hz_16bit_05sec.wav',None,250,,,,,30,1,241,7,,,,,488.18751700001303,488.6720136400254,,,,,,,counter1,001,2023-10-19_16h07.13.981,Oddball_task,2022.2.5,None,
standard,soundFiles/250Hz_44100Hz_16bit_05sec.wav',None,250,,,,,30,2,242,6,,,,,489.186619300046,489.67109164004796,,,,,,,counter1,001,2023-10-19_16h07.13.981,Oddball_task,2022.2.5,None,
standard,soundFiles/250Hz_44100Hz_16bit_05sec.wav',None,250,,,,,30,3,243,0,,,,,490.18548110005213,490.6696367400291,491.1679938000161,,,,,,counter1,001,2023-10-19_16h07.13.981,Oddball_task,2022.2.5,None,
standard,soundFiles/250Hz_44100Hz_16bit_05sec.wav',None,250,,,,,30,4,244,7,,,,,491.18577240000013,491.6712053400406,,,,,,,counter1,001,2023-10-19_16h07.13.981,Oddball_task,2022.2.5,None,
standard,soundFiles/250Hz_44100Hz_16bit_05sec.wav',None,250,,,,,30,5,245,0,,,,,492.18381410004804,492.67082184003084,,,,,,,counter1,001,2023-10-19_16h07.13.981,Oddball_task,2022.2.5,None,
standard,soundFiles/250Hz_44100Hz_16bit_05sec.wav',None,250,,,,,30,6,246,4,,,,,493.18345780001255,493.6665341400367,,,,,,,counter1,001,2023-10-19_16h07.13.981,Oddball_task,2022.2.5,None,
standard,soundFiles/250Hz_44100Hz_16bit_05sec.wav',None,250,,,,,30,7,247,1,,,,,494.1828267000383,494.6654246400285,,,,,,,counter1,001,2023-10-19_16h07.13.981,Oddball_task,2022.2.5,None,
standard,soundFiles/250Hz_44100Hz_16bit_05sec.wav',None,250,,,,,31,0,248,6,,,,,495.1816975000547,495.66513474003295,,,,,,,counter1,001,2023-10-19_16h07.13.981,Oddball_task,2022.2.5,None,
standard,soundFiles/250Hz_44100Hz_16bit_05sec.wav',None,250,,,,,31,1,249,2,,,,,496.1971719000139,496.664585140039,,,,,,,counter1,001,2023-10-19_16h07.13.981,Oddball_task,2022.2.5,None,
standard,soundFiles/250Hz_44100Hz_16bit_05sec.wav',None,250,,,,,31,2,250,1,,,,,497.1790167000145,497.66454534002696,498.1614101000014,,,,,498.18210600002203,counter1,001,2023-10-19_16h07.13.981,Oddball_task,2022.2.5,None,
standard,soundFiles/250Hz_44100Hz_16bit_05sec.wav',None,250,,,,,31,3,251,1,,,,,498.18210600002203,498.6784763400501,499.1775292000384,,,,,,counter1,001,2023-10-19_16h07.13.981,Oddball_task,2022.2.5,None,
standard,soundFiles/250Hz_44100Hz_16bit_05sec.wav',None,250,,,,,31,4,252,4,,,,,499.19433310005115,499.6774373400549,,,,,,,counter1,001,2023-10-19_16h07.13.981,Oddball_task,2022.2.5,None,
target,soundFiles/1200Hz_-3dBFS_3s_44.1kHz.wav',t,1200,,,,,31,5,253,3,,,,,500.1940476000309,500.6766375400184,501.17548390000593,,,,,,counter1,001,2023-10-19_16h07.13.981,Oddball_task,2022.2.5,None,
standard,soundFiles/250Hz_44100Hz_16bit_05sec.wav',None,250,,,,,31,6,254,6,,,,,501.19185709999874,501.6751031400345,502.1751318000024,,,,,,counter1,001,2023-10-19_16h07.13.981,Oddball_task,2022.2.5,None,
standard,soundFiles/250Hz_44100Hz_16bit_05sec.wav',None,250,,,,,31,7,255,0,,,,,502.19524359999923,502.6770323399978,,,,,,,counter1,001,2023-10-19_16h07.13.981,Oddball_task,2022.2.5,None,
standard,soundFiles/250Hz_44100Hz_16bit_05sec.wav',None,250,,,,,32,0,256,0,,,,,503.19027190003544,503.6732218400284,504.17377829999896,,,,,,counter1,001,2023-10-19_16h07.13.981,Oddball_task,2022.2.5,None,
target,soundFiles/1200Hz_-3dBFS_3s_44.1kHz.wav',t,1200,,,,,32,1,257,3,,,,,504.18952080002055,504.672356140014,505.1721161000314,,,,,,counter1,001,2023-10-19_16h07.13.981,Oddball_task,2022.2.5,None,
target,soundFiles/1200Hz_-3dBFS_3s_44.1kHz.wav',t,1200,,,,,32,2,258,3,,,,,505.18860280001536,505.6713761400024,506.17218480003066,,,,,,counter1,001,2023-10-19_16h07.13.981,Oddball_task,2022.2.5,None,
standard,soundFiles/250Hz_44100Hz_16bit_05sec.wav',None,250,,,,,32,3,259,7,,,,,506.1871282000211,506.6710080400517,,,,,,,counter1,001,2023-10-19_16h07.13.981,Oddball_task,2022.2.5,None,
standard,soundFiles/250Hz_44100Hz_16bit_05sec.wav',None,250,,,,,32,4,260,5,,,,,507.19162600004347,507.67072994002956,,,,,,,counter1,001,2023-10-19_16h07.13.981,Oddball_task,2022.2.5,None,
standard,soundFiles/250Hz_44100Hz_16bit_05sec.wav',None,250,,,,,32,5,261,7,,,,,508.1896695000469,508.6689477400214,,,,,,,counter1,001,2023-10-19_16h07.13.981,Oddball_task,2022.2.5,None,
standard,soundFiles/250Hz_44100Hz_16bit_05sec.wav',None,250,,,,,32,6,262,6,,,,,509.1852520000539,509.672300240054,,,,,,,counter1,001,2023-10-19_16h07.13.981,Oddball_task,2022.2.5,None,
standard,soundFiles/250Hz_44100Hz_16bit_05sec.wav',None,250,,,,,32,7,263,0,,,,,510.1837948000175,510.66765684002894,511.1672850000323,,,,,,counter1,001,2023-10-19_16h07.13.981,Oddball_task,2022.2.5,None,
standard,soundFiles/250Hz_44100Hz_16bit_05sec.wav',None,250,,,,,33,0,264,5,,,,,511.18628650001483,511.6661045400251,512.1648806000012,,,,,,counter1,001,2023-10-19_16h07.13.981,Oddball_task,2022.2.5,None,
standard,soundFiles/250Hz_44100Hz_16bit_05sec.wav',None,250,,,,,33,1,265,4,,,,,512.1826864000177,512.6650806400285,,,,,,,counter1,001,2023-10-19_16h07.13.981,Oddball_task,2022.2.5,None,
standard,soundFiles/250Hz_44100Hz_16bit_05sec.wav',None,250,,,,,33,2,266,5,,,,,513.1815060000517,513.6656186400505,,,,,,,counter1,001,2023-10-19_16h07.13.981,Oddball_task,2022.2.5,None,
standard,soundFiles/250Hz_44100Hz_16bit_05sec.wav',None,250,,,,,33,3,267,0,,,,,514.1810152000398,514.6828569400532,,,,,,,counter1,001,2023-10-19_16h07.13.981,Oddball_task,2022.2.5,None,
target,soundFiles/1200Hz_-3dBFS_3s_44.1kHz.wav',t,1200,,,,,33,4,268,3,,,,,515.1968053000164,515.6794410400034,,,,,,,counter1,001,2023-10-19_16h07.13.981,Oddball_task,2022.2.5,None,
standard,soundFiles/250Hz_44100Hz_16bit_05sec.wav',None,250,,,,,33,5,269,0,,,,,516.1954908000189,516.6777603400114,,,,,,,counter1,001,2023-10-19_16h07.13.981,Oddball_task,2022.2.5,None,
standard,soundFiles/250Hz_44100Hz_16bit_05sec.wav',None,250,,,,,33,6,270,2,,,,,517.1949421000318,517.6767988400243,,,,,,,counter1,001,2023-10-19_16h07.13.981,Oddball_task,2022.2.5,None,
target,soundFiles/1200Hz_-3dBFS_3s_44.1kHz.wav',t,1200,,,,,33,7,271,3,,,,,518.193357000011,518.6763154400105,519.1752815000364,,,,,,counter1,001,2023-10-19_16h07.13.981,Oddball_task,2022.2.5,None,
target,soundFiles/1200Hz_-3dBFS_3s_44.1kHz.wav',t,1200,,,,,34,0,272,3,,,,,519.1956595000229,519.6751131400524,,,,,,,counter1,001,2023-10-19_16h07.13.981,Oddball_task,2022.2.5,None,
standard,soundFiles/250Hz_44100Hz_16bit_05sec.wav',None,250,,,,,34,1,273,7,,,,,520.1927958000451,520.6746325400018,,,,,,,counter1,001,2023-10-19_16h07.13.981,Oddball_task,2022.2.5,None,
standard,soundFiles/250Hz_44100Hz_16bit_05sec.wav',None,250,,,,,34,2,274,2,,,,,521.1911713000154,521.6731217400229,522.1719177000341,,,,,,counter1,001,2023-10-19_16h07.13.981,Oddball_task,2022.2.5,None,
standard,soundFiles/250Hz_44100Hz_16bit_05sec.wav',None,250,,,,,34,3,275,5,,,,,522.1886180000147,522.6723840400518,523.1719488000381,,,,,,counter1,001,2023-10-19_16h07.13.981,Oddball_task,2022.2.5,None,
standard,soundFiles/250Hz_44100Hz_16bit_05sec.wav',None,250,,,,,34,4,276,5,,,,,523.1920546000474,523.6715097400302,524.1709990000236,,,,,,counter1,001,2023-10-19_16h07.13.981,Oddball_task,2022.2.5,None,
standard,soundFiles/250Hz_44100Hz_16bit_05sec.wav',None,250,,,,,34,5,277,5,,,,,524.187212400022,524.6704602400132,525.1721738000051,,,,,,counter1,001,2023-10-19_16h07.13.981,Oddball_task,2022.2.5,None,
standard,soundFiles/250Hz_44100Hz_16bit_05sec.wav',None,250,,,,,34,6,278,0,,,,,525.1861507000285,525.6715370400052,,,,,,,counter1,001,2023-10-19_16h07.13.981,Oddball_task,2022.2.5,None,
standard,soundFiles/250Hz_44100Hz_16bit_05sec.wav',None,250,,,,,34,7,279,2,,,,,526.1854561000364,526.6699085400032,,,,,,,counter1,001,2023-10-19_16h07.13.981,Oddball_task,2022.2.5,None,
standard,soundFiles/250Hz_44100Hz_16bit_05sec.wav',None,250,,,,,35,0,280,2,,,,,527.1856483000447,527.6696900400275,,,,,,,counter1,001,2023-10-19_16h07.13.981,Oddball_task,2022.2.5,None,
standard,soundFiles/250Hz_44100Hz_16bit_05sec.wav',None,250,,,,,35,1,281,4,,,,,528.1837455000496,528.6673311400518,529.1663262000075,,,,,,counter1,001,2023-10-19_16h07.13.981,Oddball_task,2022.2.5,None,
standard,soundFiles/250Hz_44100Hz_16bit_05sec.wav',None,250,,,,,35,2,282,0,,,,,529.1823710000026,529.6661357400299,,,,,,,counter1,001,2023-10-19_16h07.13.981,Oddball_task,2022.2.5,None,
standard,soundFiles/250Hz_44100Hz_16bit_05sec.wav',None,250,,,,,35,3,283,4,,,,,530.1820015000412,530.6685988400423,,,,,,,counter1,001,2023-10-19_16h07.13.981,Oddball_task,2022.2.5,None,
standard,soundFiles/250Hz_44100Hz_16bit_05sec.wav',None,250,,,,,35,4,284,0,,,,,531.1973503000336,531.6673247400031,,,,,,,counter1,001,2023-10-19_16h07.13.981,Oddball_task,2022.2.5,None,
standard,soundFiles/250Hz_44100Hz_16bit_05sec.wav',None,250,,,,,35,5,285,4,,,,,532.1812876000185,532.6810773400066,533.1814511000412,,,,,,counter1,001,2023-10-19_16h07.13.981,Oddball_task,2022.2.5,None,
standard,soundFiles/250Hz_44100Hz_16bit_05sec.wav',None,250,,,,,35,6,286,6,,,,,533.196068600053,533.6789017400297,534.1780503000482,,,,,,counter1,001,2023-10-19_16h07.13.981,Oddball_task,2022.2.5,None,
target,soundFiles/1200Hz_-3dBFS_3s_44.1kHz.wav',t,1200,,,,,35,7,287,3,,,,,534.1956152000348,534.6778411400446,535.1769762000185,,,,,,counter1,001,2023-10-19_16h07.13.981,Oddball_task,2022.2.5,None,
standard,soundFiles/250Hz_44100Hz_16bit_05sec.wav',None,250,,,,,36,0,288,2,,,,,535.1951201000484,535.6767497399997,536.1761211000266,,,,,,counter1,001,2023-10-19_16h07.13.981,Oddball_task,2022.2.5,None,
standard,soundFiles/250Hz_44100Hz_16bit_05sec.wav',None,250,,,,,36,1,289,4,,,,,536.1923959000269,536.6764816400537,,,,,,,counter1,001,2023-10-19_16h07.13.981,Oddball_task,2022.2.5,None,
standard,soundFiles/250Hz_44100Hz_16bit_05sec.wav',None,250,,,,,36,2,290,5,,,,,537.1954495000537,537.6746180400078,538.1771442000172,,,,,,counter1,001,2023-10-19_16h07.13.981,Oddball_task,2022.2.5,None,
target,soundFiles/1200Hz_-3dBFS_3s_44.1kHz.wav',t,1200,,,,,36,3,291,3,,,,,538.1928714000387,538.6752843400172,,,,,,,counter1,001,2023-10-19_16h07.13.981,Oddball_task,2022.2.5,None,
standard,soundFiles/250Hz_44100Hz_16bit_05sec.wav',None,250,,,,,36,4,292,4,,,,,539.1924090000102,539.6738046400424,,,,,,,counter1,001,2023-10-19_16h07.13.981,Oddball_task,2022.2.5,None,
standard,soundFiles/250Hz_44100Hz_16bit_05sec.wav',None,250,,,,,36,5,293,1,,,,,540.1895033000037,540.6741066400136,,,,,,,counter1,001,2023-10-19_16h07.13.981,Oddball_task,2022.2.5,None,
standard,soundFiles/250Hz_44100Hz_16bit_05sec.wav',None,250,,,,,36,6,294,1,,,,,541.1879511000006,541.6711612400541,,,,,,,counter1,001,2023-10-19_16h07.13.981,Oddball_task,2022.2.5,None,
standard,soundFiles/250Hz_44100Hz_16bit_05sec.wav',None,250,,,,,36,7,295,0,,,,,542.1877534000087,542.6744822400215,,,,,,,counter1,001,2023-10-19_16h07.13.981,Oddball_task,2022.2.5,None,
target,soundFiles/1200Hz_-3dBFS_3s_44.1kHz.wav',t,1200,,,,,37,0,296,3,,,,,543.1870279000141,543.669138140016,544.1688142000348,,,,,,counter1,001,2023-10-19_16h07.13.981,Oddball_task,2022.2.5,None,
standard,soundFiles/250Hz_44100Hz_16bit_05sec.wav',None,250,,,,,37,1,297,1,,,,,544.1851745000458,544.6687207400391,545.1677729000221,,,,,,counter1,001,2023-10-19_16h07.13.981,Oddball_task,2022.2.5,None,
target,soundFiles/1200Hz_-3dBFS_3s_44.1kHz.wav',t,1200,,,,,37,2,298,3,,,,,545.1866675000056,545.6673163400555,546.1665335000143,,,,,,counter1,001,2023-10-19_16h07.13.981,Oddball_task,2022.2.5,None,
standard,soundFiles/250Hz_44100Hz_16bit_05sec.wav',None,250,,,,,37,3,299,7,,,,,546.1876436000457,546.6683003400394,547.168919400021,,,,,,counter1,001,2023-10-19_16h07.13.981,Oddball_task,2022.2.5,None,
standard,soundFiles/250Hz_44100Hz_16bit_05sec.wav',None,250,,,,,37,4,300,1,,,,,547.18382570002,547.6654380400141,548.1649830000242,,,,,,counter1,001,2023-10-19_16h07.13.981,Oddball_task,2022.2.5,None,
standard,soundFiles/250Hz_44100Hz_16bit_05sec.wav',None,250,,,,,37,5,301,2,,,,,548.182228300022,548.6646190400061,549.1643820000463,,,,,549.1825867000152,counter1,001,2023-10-19_16h07.13.981,Oddball_task,2022.2.5,None,
standard,soundFiles/250Hz_44100Hz_16bit_05sec.wav',None,250,,,,,37,6,302,5,,,,,549.1825867000152,549.6639386400057,550.1627627000562,,,,,,counter1,001,2023-10-19_16h07.13.981,Oddball_task,2022.2.5,None,
standard,soundFiles/250Hz_44100Hz_16bit_05sec.wav',None,250,,,,,37,7,303,5,,,,,550.1964572000434,550.6645062400203,,,,,,,counter1,001,2023-10-19_16h07.13.981,Oddball_task,2022.2.5,None,
standard,soundFiles/250Hz_44100Hz_16bit_05sec.wav',None,250,,,,,38,0,304,1,,,,,551.1955973000149,551.6792778400413,552.177661200054,,,,,,counter1,001,2023-10-19_16h07.13.981,Oddball_task,2022.2.5,None,
,,,,,,,,,,,,,,,,552.1977022000356,,,,,,,,,,,,,,
