trial,file,corrAns,tone,trials.thisRepN,trials.thisTrialN,trials.thisN,trials.thisIndex,trials_2.thisRepN,trials_2.thisTrialN,trials_2.thisN,trials_2.thisIndex,instructions.started,key_resp_1.started,key_resp_1.keys,key_resp_1.rt,fixation.started,response.started,sound_1.started,response.stopped,response.keys,response.corr,feedback_text.started,response.rt,instructions_2.started,key_resp_2.started,key_resp_2.keys,key_resp_2.rt,sound_1.stopped,fixation.stopped,thank_you.started,exit_exp.started,thank_you.stopped,exit_exp.keys,exit_exp.rt,participant,session,date,expName,psychopyVersion,frameRate,
,,,,,,,,,,,,36.01042210000014,36.01042210000014,space,70.41767149999987,,,,,,,,,,,,,,,,,,,,elpida1310,001,2023-10-13_13h37.24.132,Oddball_task,2022.2.5,59.86611541946819,
standard,soundFiles/250Hz_44100Hz_16bit_05sec.wav',None,250,0,0,0,1,,,,,,,,,106.47288460000004,107.4582441,107.45859756000007,109.95639740000001,None,1,109.98891370000001,,,,,,,,,,,,,elpida1310,001,2023-10-13_13h37.24.132,Oddball_task,2022.2.5,59.86611541946819,
standard,soundFiles/250Hz_44100Hz_16bit_05sec.wav',None,250,0,1,1,2,,,,,,,,,110.97400010000001,111.9572885,111.95771956000002,114.45631320000007,None,1,114.474242,,,,,,,,,,,,,elpida1310,001,2023-10-13_13h37.24.132,Oddball_task,2022.2.5,59.86611541946819,
standard,soundFiles/250Hz_44100Hz_16bit_05sec.wav',None,250,0,2,2,0,,,,,,,,,115.47455319999995,116.45711520000009,116.45709476000005,118.95617809999999,None,1,118.97363020000012,,,,,,,,,,,,,elpida1310,001,2023-10-13_13h37.24.132,Oddball_task,2022.2.5,59.86611541946819,
standard,soundFiles/250Hz_44100Hz_16bit_05sec.wav',None,250,0,3,3,2,,,,,,,,,119.97506780000003,120.95668309999996,120.95703526000014,123.45636270000023,None,1,123.47435080000014,,,,,,,,,,,,,elpida1310,001,2023-10-13_13h37.24.132,Oddball_task,2022.2.5,59.86611541946819,
standard,soundFiles/250Hz_44100Hz_16bit_05sec.wav',None,250,1,0,4,1,,,,,,,,,124.47385870000016,125.45794969999997,125.45712306000021,,None,1,127.97293029999992,,,,,,,,,,,,,elpida1310,001,2023-10-13_13h37.24.132,Oddball_task,2022.2.5,59.86611541946819,
standard,soundFiles/250Hz_44100Hz_16bit_05sec.wav',None,250,1,1,5,0,,,,,,,,,128.97291219999988,129.9559208999999,129.9559844600001,132.45667090000006,None,1,132.47274210000023,,,,,,,,,,,,,elpida1310,001,2023-10-13_13h37.24.132,Oddball_task,2022.2.5,59.86611541946819,
target,soundFiles/1200Hz_-3dBFS_3s_44.1kHz.wav',t,1200,1,2,6,3,,,,,,,,,133.4736471000001,134.45556209999995,134.45633056000023,136.95524060000025,t,1,136.97295410000015,0.6674533999998857,,,,,,,,,,,,elpida1310,001,2023-10-13_13h37.24.132,Oddball_task,2022.2.5,59.86611541946819,
target,soundFiles/1200Hz_-3dBFS_3s_44.1kHz.wav',t,1200,1,3,7,3,,,,,,,,,137.97265220000008,138.95537809999996,138.95607466000027,141.45510860000013,t,1,141.47225590000016,0.6362040999997589,,,,,,,,,,,,elpida1310,001,2023-10-13_13h37.24.132,Oddball_task,2022.2.5,59.86611541946819,
,,,,,,,,,,,,,,,,,,,,,,,,142.4727868,142.4727868,space,7.393493299999591,,,,,,,,elpida1310,001,2023-10-13_13h37.24.132,Oddball_task,2022.2.5,59.86611541946819,
standard,soundFiles/250Hz_44100Hz_16bit_05sec.wav',None,250,,,,,0,0,0,0,,,,,149.90286520000018,150.88925590000008,150.88788476000016,,None,1,,,,,,,,,,,,,,elpida1310,001,2023-10-13_13h37.24.132,Oddball_task,2022.2.5,59.86611541946819,
standard,soundFiles/250Hz_44100Hz_16bit_05sec.wav',None,250,,,,,0,1,1,1,,,,,153.40485369999988,154.38865380000016,154.3880954600002,156.8891493000001,None,1,,,,,,,,,,,,,,elpida1310,001,2023-10-13_13h37.24.132,Oddball_task,2022.2.5,59.86611541946819,
standard,soundFiles/250Hz_44100Hz_16bit_05sec.wav',None,250,,,,,0,2,2,1,,,,,156.90436869999985,157.88891289999992,157.88739236000018,,None,1,,,,,,,158.88862460000018,,,,,,,elpida1310,001,2023-10-13_13h37.24.132,Oddball_task,2022.2.5,59.86611541946819,
target,soundFiles/1200Hz_-3dBFS_3s_44.1kHz.wav',t,1200,,,,,0,3,3,3,,,,,160.40404080000008,161.3886047000001,161.3877026600001,,t,1,,0.8487973999999667,,,,,,,,,,,,elpida1310,001,2023-10-13_13h37.24.132,Oddball_task,2022.2.5,59.86611541946819,
standard,soundFiles/250Hz_44100Hz_16bit_05sec.wav',None,250,,,,,1,0,4,0,,,,,163.90356340000017,164.88777059999984,164.88709245999988,167.38777140000002,None,1,,,,,,,,,,,,,,elpida1310,001,2023-10-13_13h37.24.132,Oddball_task,2022.2.5,59.86611541946819,
standard,soundFiles/250Hz_44100Hz_16bit_05sec.wav',None,250,,,,,1,1,5,2,,,,,167.4035469999999,168.3877333999999,168.38675296,,None,1,,,,,,,,,,,,,,elpida1310,001,2023-10-13_13h37.24.132,Oddball_task,2022.2.5,59.86611541946819,
standard,soundFiles/250Hz_44100Hz_16bit_05sec.wav',None,250,,,,,1,2,6,1,,,,,170.90430909999986,171.88697379999985,171.88730095999998,174.38645099999985,None,1,,,,,,,,,,,,,,elpida1310,001,2023-10-13_13h37.24.132,Oddball_task,2022.2.5,59.86611541946819,
standard,soundFiles/250Hz_44100Hz_16bit_05sec.wav',None,250,,,,,1,3,7,1,,,,,174.40373490000002,175.3718487000001,175.3731092599999,177.8862669,None,1,,,,,,,,,,,,,,elpida1310,001,2023-10-13_13h37.24.132,Oddball_task,2022.2.5,59.86611541946819,
standard,soundFiles/250Hz_44100Hz_16bit_05sec.wav',None,250,,,,,2,0,8,1,,,,,177.9037589999998,178.88659139999982,178.88806106000018,181.38597200000004,None,1,,,,,,,,,,,,,,elpida1310,001,2023-10-13_13h37.24.132,Oddball_task,2022.2.5,59.86611541946819,
target,soundFiles/1200Hz_-3dBFS_3s_44.1kHz.wav',t,1200,,,,,2,1,9,3,,,,,181.40357660000018,182.38742279999997,182.38749515999987,184.8859720999999,t,1,,0.7368838999996115,,,,,,,,,,,,elpida1310,001,2023-10-13_13h37.24.132,Oddball_task,2022.2.5,59.86611541946819,
standard,soundFiles/250Hz_44100Hz_16bit_05sec.wav',None,250,,,,,2,2,10,0,,,,,184.90494450000006,185.8861178000002,185.8866229600001,188.3861296,None,1,,,,,,,,,,,,,,elpida1310,001,2023-10-13_13h37.24.132,Oddball_task,2022.2.5,59.86611541946819,
target,soundFiles/1200Hz_-3dBFS_3s_44.1kHz.wav',t,1200,,,,,2,3,11,3,,,,,188.4052575999999,189.38628960000005,189.38705486000006,191.8861698999999,t,1,,0.6596979999999348,,,,,,,,,,,,elpida1310,001,2023-10-13_13h37.24.132,Oddball_task,2022.2.5,59.86611541946819,
standard,soundFiles/250Hz_44100Hz_16bit_05sec.wav',None,250,,,,,3,0,12,0,,,,,191.9015585000002,192.88755100000026,192.88530126000003,,None,1,,,,,,,,,,,,,,elpida1310,001,2023-10-13_13h37.24.132,Oddball_task,2022.2.5,59.86611541946819,
standard,soundFiles/250Hz_44100Hz_16bit_05sec.wav',None,250,,,,,3,1,13,0,,,,,195.40146240000013,196.38588040000013,196.38492135999994,198.88740050000024,None,1,,,,,,,,,,,,,,elpida1310,001,2023-10-13_13h37.24.132,Oddball_task,2022.2.5,59.86611541946819,
standard,soundFiles/250Hz_44100Hz_16bit_05sec.wav',None,250,,,,,3,2,14,1,,,,,198.90198659999987,199.88722850000022,199.8848944600002,,None,1,,,,,,,200.88535520000005,,,,,,,elpida1310,001,2023-10-13_13h37.24.132,Oddball_task,2022.2.5,59.86611541946819,
target,soundFiles/1200Hz_-3dBFS_3s_44.1kHz.wav',t,1200,,,,,3,3,15,3,,,,,202.4010976999998,203.38573279999991,203.38537526000007,,t,1,,0.6061064000000442,,,,,,,,,,,,elpida1310,001,2023-10-13_13h37.24.132,Oddball_task,2022.2.5,59.86611541946819,
standard,soundFiles/250Hz_44100Hz_16bit_05sec.wav',None,250,,,,,4,0,16,2,,,,,205.90078200000016,206.88509810000005,206.88422756000026,209.38541600000008,None,1,,,,,,,,,,,,,,elpida1310,001,2023-10-13_13h37.24.132,Oddball_task,2022.2.5,59.86611541946819,
standard,soundFiles/250Hz_44100Hz_16bit_05sec.wav',None,250,,,,,4,1,17,2,,,,,209.4016204999998,210.3850136000001,210.38409086000027,212.88488460000008,None,1,,,,,,,,,,,,,,elpida1310,001,2023-10-13_13h37.24.132,Oddball_task,2022.2.5,59.86611541946819,
standard,soundFiles/250Hz_44100Hz_16bit_05sec.wav',None,250,,,,,4,2,18,1,,,,,212.90341630000012,213.88381740000023,213.88453705999999,216.38404330000003,None,1,,,,,,,,,,,,,,elpida1310,001,2023-10-13_13h37.24.132,Oddball_task,2022.2.5,59.86611541946819,
standard,soundFiles/250Hz_44100Hz_16bit_05sec.wav',None,250,,,,,4,3,19,1,,,,,216.40150360000007,217.3840140000002,217.38452376000012,219.88334630000008,None,1,,,,,,,,,,,,,,elpida1310,001,2023-10-13_13h37.24.132,Oddball_task,2022.2.5,59.86611541946819,
standard,soundFiles/250Hz_44100Hz_16bit_05sec.wav',None,250,,,,,5,0,20,2,,,,,219.90110790000017,220.88376629999993,220.88421606,223.38412890000018,None,1,,,,,,,221.88303059999998,,,,,,,elpida1310,001,2023-10-13_13h37.24.132,Oddball_task,2022.2.5,59.86611541946819,
standard,soundFiles/250Hz_44100Hz_16bit_05sec.wav',None,250,,,,,5,1,21,1,,,,,223.4007772,224.38314979999996,224.38433525999997,226.88324760000023,None,1,,,,,,,,,,,,,,elpida1310,001,2023-10-13_13h37.24.132,Oddball_task,2022.2.5,59.86611541946819,
standard,soundFiles/250Hz_44100Hz_16bit_05sec.wav',None,250,,,,,5,2,22,2,,,,,226.90060119999998,227.88347139999996,227.88429126000008,230.38276080000014,None,1,,,,,,,,,,,,,,elpida1310,001,2023-10-13_13h37.24.132,Oddball_task,2022.2.5,59.86611541946819,
standard,soundFiles/250Hz_44100Hz_16bit_05sec.wav',None,250,,,,,5,3,23,2,,,,,230.40078799999992,231.38275160000012,231.38357286,233.88309530000015,None,1,,,,,,,,,,,,,,elpida1310,001,2023-10-13_13h37.24.132,Oddball_task,2022.2.5,59.86611541946819,
standard,soundFiles/250Hz_44100Hz_16bit_05sec.wav',None,250,,,,,6,0,24,1,,,,,233.89989120000018,234.8822180000002,234.88469206000016,237.38254730000017,None,1,,,,,,,,,,,,,,elpida1310,001,2023-10-13_13h37.24.132,Oddball_task,2022.2.5,59.86611541946819,
standard,soundFiles/250Hz_44100Hz_16bit_05sec.wav',None,250,,,,,6,1,25,1,,,,,237.40027820000023,238.38274150000007,238.3833620600001,240.8821084000001,None,1,,,,,,,,,,,,,,elpida1310,001,2023-10-13_13h37.24.132,Oddball_task,2022.2.5,59.86611541946819,
standard,soundFiles/250Hz_44100Hz_16bit_05sec.wav',None,250,,,,,6,2,26,1,,,,,240.89932839999983,241.8834992000002,241.8846091600001,244.38214789999984,None,1,,,,,,,,,,,,,,elpida1310,001,2023-10-13_13h37.24.132,Oddball_task,2022.2.5,59.86611541946819,
target,soundFiles/1200Hz_-3dBFS_3s_44.1kHz.wav',t,1200,,,,,6,3,27,3,,,,,244.39947979999988,245.38198250000005,245.3842815599999,247.8824039000001,t,1,,0.7085349999997561,,,,,,,,,,,,elpida1310,001,2023-10-13_13h37.24.132,Oddball_task,2022.2.5,59.86611541946819,
standard,soundFiles/250Hz_44100Hz_16bit_05sec.wav',None,250,,,,,7,0,28,1,,,,,247.90058090000002,248.8871838,248.88338546000003,,None,1,,,,,,,,,,,,,,elpida1310,001,2023-10-13_13h37.24.132,Oddball_task,2022.2.5,59.86611541946819,
standard,soundFiles/250Hz_44100Hz_16bit_05sec.wav',None,250,,,,,7,1,29,0,,,,,251.39904720000004,252.38102919999983,252.38177466000005,254.8815810000001,None,1,,,,,,,,,,,,,,elpida1310,001,2023-10-13_13h37.24.132,Oddball_task,2022.2.5,59.86611541946819,
target,soundFiles/1200Hz_-3dBFS_3s_44.1kHz.wav',t,1200,,,,,7,2,30,3,,,,,254.8986149000002,255.88132380000025,255.88423575999994,258.38081580000016,t,1,,0.7359748999997464,,,,,,,,,,,,elpida1310,001,2023-10-13_13h37.24.132,Oddball_task,2022.2.5,59.86611541946819,
standard,soundFiles/250Hz_44100Hz_16bit_05sec.wav',None,250,,,,,7,3,31,2,,,,,258.39895690000003,259.38102359999993,259.3817345599998,261.88111200000003,None,1,,,,,,,260.3810159999998,,,,,,,elpida1310,001,2023-10-13_13h37.24.132,Oddball_task,2022.2.5,59.86611541946819,
standard,soundFiles/250Hz_44100Hz_16bit_05sec.wav',None,250,,,,,8,0,32,0,,,,,261.8982427000001,262.8803567,262.8821197599998,265.3807535000001,None,1,,,,,,,,,,,,,,elpida1310,001,2023-10-13_13h37.24.132,Oddball_task,2022.2.5,59.86611541946819,
standard,soundFiles/250Hz_44100Hz_16bit_05sec.wav',None,250,,,,,8,1,33,2,,,,,265.39832190000016,266.3803839000002,266.38170276000005,268.8822656000002,None,1,,,,,,,,,,,,,,elpida1310,001,2023-10-13_13h37.24.132,Oddball_task,2022.2.5,59.86611541946819,
target,soundFiles/1200Hz_-3dBFS_3s_44.1kHz.wav',t,1200,,,,,8,2,34,3,,,,,268.8986525,269.8808803000002,269.88210456,272.38066359999993,t,1,,0.6504305999997086,,,,,,,,,,,,elpida1310,001,2023-10-13_13h37.24.132,Oddball_task,2022.2.5,59.86611541946819,
standard,soundFiles/250Hz_44100Hz_16bit_05sec.wav',None,250,,,,,8,3,35,0,,,,,272.3978022000001,273.3801272999999,273.3809491600002,275.8796080000002,None,1,,,,,,,,,,,,,,elpida1310,001,2023-10-13_13h37.24.132,Oddball_task,2022.2.5,59.86611541946819,
target,soundFiles/1200Hz_-3dBFS_3s_44.1kHz.wav',t,1200,,,,,9,0,36,3,,,,,275.8974398999999,276.8804008000002,276.88136726000016,279.3801413000001,t,1,,0.6919554000000971,,,,,,,,,,,,elpida1310,001,2023-10-13_13h37.24.132,Oddball_task,2022.2.5,59.86611541946819,
standard,soundFiles/250Hz_44100Hz_16bit_05sec.wav',None,250,,,,,9,1,37,2,,,,,279.3979024999999,280.38013150000006,280.3819215599999,282.8798342,None,1,,,,,,,,,,,,,,elpida1310,001,2023-10-13_13h37.24.132,Oddball_task,2022.2.5,59.86611541946819,
standard,soundFiles/250Hz_44100Hz_16bit_05sec.wav',None,250,,,,,9,2,38,2,,,,,282.89739499999996,283.8802217000002,283.8816377599999,286.37935640000023,None,1,,,,,,,,,,,,,,elpida1310,001,2023-10-13_13h37.24.132,Oddball_task,2022.2.5,59.86611541946819,
standard,soundFiles/250Hz_44100Hz_16bit_05sec.wav',None,250,,,,,9,3,39,2,,,,,286.39788050000016,287.37942239999984,287.38027836000015,289.8791590999999,None,1,,,,,,,,,,,,,,elpida1310,001,2023-10-13_13h37.24.132,Oddball_task,2022.2.5,59.86611541946819,
standard,soundFiles/250Hz_44100Hz_16bit_05sec.wav',None,250,,,,,10,0,40,2,,,,,289.8970158000002,290.87894830000005,290.8795786600001,293.3793277,None,1,,,,,,,,,,,,,,elpida1310,001,2023-10-13_13h37.24.132,Oddball_task,2022.2.5,59.86611541946819,
standard,soundFiles/250Hz_44100Hz_16bit_05sec.wav',None,250,,,,,10,1,41,2,,,,,293.3971658999999,294.37898540000015,294.37968746,296.8789729,None,1,,,,,,,,,,,,,,elpida1310,001,2023-10-13_13h37.24.132,Oddball_task,2022.2.5,59.86611541946819,
standard,soundFiles/250Hz_44100Hz_16bit_05sec.wav',None,250,,,,,10,2,42,2,,,,,296.89694169999984,297.8790638999999,297.8802410599999,300.37906729999986,None,1,,,,,,,,,,,,,,elpida1310,001,2023-10-13_13h37.24.132,Oddball_task,2022.2.5,59.86611541946819,
standard,soundFiles/250Hz_44100Hz_16bit_05sec.wav',None,250,,,,,10,3,43,1,,,,,300.3960301000002,301.37863270000025,301.3796245599999,303.8792764,None,1,,,,,,,302.37965680000025,,,,,,,elpida1310,001,2023-10-13_13h37.24.132,Oddball_task,2022.2.5,59.86611541946819,
target,soundFiles/1200Hz_-3dBFS_3s_44.1kHz.wav',t,1200,,,,,11,0,44,3,,,,,303.8965324999999,304.8783460999998,304.8792091600001,307.37774420000005,t,1,,0.7290634999999384,,,,,,,,,,,,elpida1310,001,2023-10-13_13h37.24.132,Oddball_task,2022.2.5,59.86611541946819,
standard,soundFiles/250Hz_44100Hz_16bit_05sec.wav',None,250,,,,,11,1,45,0,,,,,307.39641310000025,308.3792748000001,308.3793421600001,,None,1,,,,,,,,,,,,,,elpida1310,001,2023-10-13_13h37.24.132,Oddball_task,2022.2.5,59.86611541946819,
standard,soundFiles/250Hz_44100Hz_16bit_05sec.wav',None,250,,,,,11,2,46,0,,,,,310.89514180000015,311.8780151000001,311.8784384600001,314.37787549999985,None,1,,,,,,,,,,,,,,elpida1310,001,2023-10-13_13h37.24.132,Oddball_task,2022.2.5,59.86611541946819,
standard,soundFiles/250Hz_44100Hz_16bit_05sec.wav',None,250,,,,,11,3,47,1,,,,,314.3948826999999,315.37805949999984,315.37875655999983,317.8776148000002,None,1,,,,,,,,,,,,,,elpida1310,001,2023-10-13_13h37.24.132,Oddball_task,2022.2.5,59.86611541946819,
standard,soundFiles/250Hz_44100Hz_16bit_05sec.wav',None,250,,,,,12,0,48,0,,,,,317.89497340000025,318.8784234999998,318.8781509600001,,None,1,,,,,,,,,,,,,,elpida1310,001,2023-10-13_13h37.24.132,Oddball_task,2022.2.5,59.86611541946819,
standard,soundFiles/250Hz_44100Hz_16bit_05sec.wav',None,250,,,,,12,1,49,1,,,,,321.39383180000004,322.3773016,322.37720156,324.87783260000015,None,1,,,,,,,,,,,,,,elpida1310,001,2023-10-13_13h37.24.132,Oddball_task,2022.2.5,59.86611541946819,
standard,soundFiles/250Hz_44100Hz_16bit_05sec.wav',None,250,,,,,12,2,50,0,,,,,324.89354300000014,325.87758250000024,325.87661876000016,328.3766522000001,None,1,,,,,,,,,,,,,,elpida1310,001,2023-10-13_13h37.24.132,Oddball_task,2022.2.5,59.86611541946819,
standard,soundFiles/250Hz_44100Hz_16bit_05sec.wav',None,250,,,,,12,3,51,1,,,,,328.3943755,329.3766553999999,329.37771915999997,331.87719689999994,None,1,,,,,,,,,,,,,,elpida1310,001,2023-10-13_13h37.24.132,Oddball_task,2022.2.5,59.86611541946819,
standard,soundFiles/250Hz_44100Hz_16bit_05sec.wav',None,250,,,,,13,0,52,1,,,,,331.89400620000015,332.87749269999995,332.8777788599998,335.37625160000016,None,1,,,,,,,,,,,,,,elpida1310,001,2023-10-13_13h37.24.132,Oddball_task,2022.2.5,59.86611541946819,
standard,soundFiles/250Hz_44100Hz_16bit_05sec.wav',None,250,,,,,13,1,53,0,,,,,335.39418990000013,336.37733400000025,336.3767235600001,338.8759181999999,None,1,,,,,,,337.37676550000015,,,,,,,elpida1310,001,2023-10-13_13h37.24.132,Oddball_task,2022.2.5,59.86611541946819,
target,soundFiles/1200Hz_-3dBFS_3s_44.1kHz.wav',t,1200,,,,,13,2,54,3,,,,,338.8938459000001,339.87680880000016,339.87770466000006,342.37585609999996,t,1,,0.6072822999999516,,,,,,,,,,,,elpida1310,001,2023-10-13_13h37.24.132,Oddball_task,2022.2.5,59.86611541946819,
target,soundFiles/1200Hz_-3dBFS_3s_44.1kHz.wav',t,1200,,,,,13,3,55,3,,,,,342.3936569000002,343.3764328000002,343.37657946000013,345.87568539999984,t,1,,0.8804915999999139,,,,,,,,,,,,elpida1310,001,2023-10-13_13h37.24.132,Oddball_task,2022.2.5,59.86611541946819,
target,soundFiles/1200Hz_-3dBFS_3s_44.1kHz.wav',t,1200,,,,,14,0,56,3,,,,,345.8937449,346.8759709000001,346.87597226,349.3757593999999,t,1,,0.7203946999998152,,,,,,,,,,,,elpida1310,001,2023-10-13_13h37.24.132,Oddball_task,2022.2.5,59.86611541946819,
target,soundFiles/1200Hz_-3dBFS_3s_44.1kHz.wav',t,1200,,,,,14,1,57,3,,,,,349.39251509999986,350.3758748,350.3758136600002,352.8760281,t,1,,0.7882336000002397,,,,,,,,,,,,elpida1310,001,2023-10-13_13h37.24.132,Oddball_task,2022.2.5,59.86611541946819,
standard,soundFiles/250Hz_44100Hz_16bit_05sec.wav',None,250,,,,,14,2,58,0,,,,,352.89372140000023,353.8759353999999,353.87603535999983,356.3752161000002,None,1,,,,,,,,,,,,,,elpida1310,001,2023-10-13_13h37.24.132,Oddball_task,2022.2.5,59.86611541946819,
standard,soundFiles/250Hz_44100Hz_16bit_05sec.wav',None,250,,,,,14,3,59,2,,,,,356.3922477000001,357.37627599999996,357.3758542600001,359.8753075999998,None,1,,,,,,,,,,,,,,elpida1310,001,2023-10-13_13h37.24.132,Oddball_task,2022.2.5,59.86611541946819,
standard,soundFiles/250Hz_44100Hz_16bit_05sec.wav',None,250,,,,,15,0,60,1,,,,,359.8927646000002,360.8758805000002,360.8760927599999,363.37512019999986,None,1,,,,,,,,,,,,,,elpida1310,001,2023-10-13_13h37.24.132,Oddball_task,2022.2.5,59.86611541946819,
target,soundFiles/1200Hz_-3dBFS_3s_44.1kHz.wav',t,1200,,,,,15,1,61,3,,,,,363.39292890000024,364.37488239999993,364.37620786,366.87504160000026,t,1,,1.06315289999975,,,,,,,,,,,,elpida1310,001,2023-10-13_13h37.24.132,Oddball_task,2022.2.5,59.86611541946819,
standard,soundFiles/250Hz_44100Hz_16bit_05sec.wav',None,250,,,,,15,2,62,0,,,,,366.89307599999984,367.8744535999999,367.87531546000014,370.3752340000001,None,1,,,,,,,,,,,,,,elpida1310,001,2023-10-13_13h37.24.132,Oddball_task,2022.2.5,59.86611541946819,
standard,soundFiles/250Hz_44100Hz_16bit_05sec.wav',None,250,,,,,15,3,63,1,,,,,370.3915430000002,371.3745898000002,371.37424926000017,373.8745299000002,None,1,,,,,,,,,,,,,,elpida1310,001,2023-10-13_13h37.24.132,Oddball_task,2022.2.5,59.86611541946819,
target,soundFiles/1200Hz_-3dBFS_3s_44.1kHz.wav',t,1200,,,,,16,0,64,3,,,,,373.8907835,374.8750350999999,374.8736566599998,,t,1,,0.6653895999997985,,,,,,,,,,,,elpida1310,001,2023-10-13_13h37.24.132,Oddball_task,2022.2.5,59.86611541946819,
standard,soundFiles/250Hz_44100Hz_16bit_05sec.wav',None,250,,,,,16,1,65,1,,,,,377.3907637000002,378.37460740000006,378.3735365599998,380.87407829999984,None,1,,,,,,,,,,,,,,elpida1310,001,2023-10-13_13h37.24.132,Oddball_task,2022.2.5,59.86611541946819,
standard,soundFiles/250Hz_44100Hz_16bit_05sec.wav',None,250,,,,,16,2,66,1,,,,,380.8900328999998,381.8741490000002,381.8734833599999,384.37375550000024,None,1,,,,,,,,,,,,,,elpida1310,001,2023-10-13_13h37.24.132,Oddball_task,2022.2.5,59.86611541946819,
standard,soundFiles/250Hz_44100Hz_16bit_05sec.wav',None,250,,,,,16,3,67,0,,,,,384.38974020000023,385.3742747000001,385.3736638600001,,None,1,,,,,,,,,,,,,,elpida1310,001,2023-10-13_13h37.24.132,Oddball_task,2022.2.5,59.86611541946819,
standard,soundFiles/250Hz_44100Hz_16bit_05sec.wav',None,250,,,,,17,0,68,2,,,,,387.89014050000014,388.8758492000002,388.8730508599999,,None,1,,,,,,,,,,,,,,elpida1310,001,2023-10-13_13h37.24.132,Oddball_task,2022.2.5,59.86611541946819,
standard,soundFiles/250Hz_44100Hz_16bit_05sec.wav',None,250,,,,,17,1,69,2,,,,,391.38984630000004,392.3741659000002,392.3728547600001,394.88969700000007,None,1,,,,,,,,394.88969700000007,,,,,,elpida1310,001,2023-10-13_13h37.24.132,Oddball_task,2022.2.5,59.86611541946819,
target,soundFiles/1200Hz_-3dBFS_3s_44.1kHz.wav',t,1200,,,,,17,2,70,3,,,,,394.88969700000007,395.88962900000024,395.88998995999987,398.38883110000006,t,1,,0.6939881999996942,,,,,,398.38883110000006,,,,,,elpida1310,001,2023-10-13_13h37.24.132,Oddball_task,2022.2.5,59.86611541946819,
standard,soundFiles/250Hz_44100Hz_16bit_05sec.wav',None,250,,,,,17,3,71,2,,,,,398.38883110000006,399.3729656999999,399.37304156000005,401.87386270000025,None,1,,,,,,,,,,,,,,elpida1310,001,2023-10-13_13h37.24.132,Oddball_task,2022.2.5,59.86611541946819,
standard,soundFiles/250Hz_44100Hz_16bit_05sec.wav',None,250,,,,,18,0,72,1,,,,,401.89017939999985,402.88991269999997,402.8894429600002,405.3887383000001,None,1,,,,,,,403.88922660000026,405.3887383000001,,,,,,elpida1310,001,2023-10-13_13h37.24.132,Oddball_task,2022.2.5,59.86611541946819,
target,soundFiles/1200Hz_-3dBFS_3s_44.1kHz.wav',t,1200,,,,,18,1,73,3,,,,,405.3887383000001,406.38851639999984,406.38992996,408.8883415,t,1,,0.7989416999998866,,,,,,408.8883415,,,,,,elpida1310,001,2023-10-13_13h37.24.132,Oddball_task,2022.2.5,59.86611541946819,
standard,soundFiles/250Hz_44100Hz_16bit_05sec.wav',None,250,,,,,18,2,74,1,,,,,408.8883415,409.8883532,409.88912275999996,412.3883744999998,None,1,,,,,,,,412.3883744999998,,,,,,elpida1310,001,2023-10-13_13h37.24.132,Oddball_task,2022.2.5,59.86611541946819,
standard,soundFiles/250Hz_44100Hz_16bit_05sec.wav',None,250,,,,,18,3,75,0,,,,,412.3883744999998,413.3883808999999,413.3899860600002,415.88863600000013,None,1,,,,,,,,415.88863600000013,,,,,,elpida1310,001,2023-10-13_13h37.24.132,Oddball_task,2022.2.5,59.86611541946819,
target,soundFiles/1200Hz_-3dBFS_3s_44.1kHz.wav',t,1200,,,,,19,0,76,3,,,,,415.88863600000013,416.88942810000026,416.88801665999995,,t,1,,0.6400681999998596,,,,,,419.3890827,,,,,,elpida1310,001,2023-10-13_13h37.24.132,Oddball_task,2022.2.5,59.86611541946819,
standard,soundFiles/250Hz_44100Hz_16bit_05sec.wav',None,250,,,,,19,1,77,1,,,,,419.4048461000002,420.37132310000015,420.3727802599999,422.8709045999999,None,1,,,,,,,,,,,,,,elpida1310,001,2023-10-13_13h37.24.132,Oddball_task,2022.2.5,59.86611541946819,
standard,soundFiles/250Hz_44100Hz_16bit_05sec.wav',None,250,,,,,19,2,78,0,,,,,422.9051247000002,423.8709718,423.8728785599999,426.37108609999996,None,1,,,,,,,,,,,,,,elpida1310,001,2023-10-13_13h37.24.132,Oddball_task,2022.2.5,59.86611541946819,
target,soundFiles/1200Hz_-3dBFS_3s_44.1kHz.wav',t,1200,,,,,19,3,79,3,,,,,426.4040654999999,427.3885257000002,427.3877802600002,,t,1,,0.7027276999997412,,,,,,,,,,,,elpida1310,001,2023-10-13_13h37.24.132,Oddball_task,2022.2.5,59.86611541946819,
standard,soundFiles/250Hz_44100Hz_16bit_05sec.wav',None,250,,,,,20,0,80,0,,,,,429.90362099999993,430.88813370000025,430.88752996000017,,None,1,,,,,,,,,,,,,,elpida1310,001,2023-10-13_13h37.24.132,Oddball_task,2022.2.5,59.86611541946819,
standard,soundFiles/250Hz_44100Hz_16bit_05sec.wav',None,250,,,,,20,1,81,1,,,,,433.4039023999999,434.38800619999984,434.38718575999997,436.8887103000002,None,1,,,,,,,,,,,,,,elpida1310,001,2023-10-13_13h37.24.132,Oddball_task,2022.2.5,59.86611541946819,
target,soundFiles/1200Hz_-3dBFS_3s_44.1kHz.wav',t,1200,,,,,20,2,82,3,,,,,436.90380110000024,437.88808900000004,437.88695566,,t,1,,0.7551066999994873,,,,,,,,,,,,elpida1310,001,2023-10-13_13h37.24.132,Oddball_task,2022.2.5,59.86611541946819,
standard,soundFiles/250Hz_44100Hz_16bit_05sec.wav',None,250,,,,,20,3,83,2,,,,,440.40338070000007,441.3882668000001,441.38686785999994,,None,1,,,,,,,,,,,,,,elpida1310,001,2023-10-13_13h37.24.132,Oddball_task,2022.2.5,59.86611541946819,
standard,soundFiles/250Hz_44100Hz_16bit_05sec.wav',None,250,,,,,21,0,84,0,,,,,443.9030158999999,444.88681769999994,444.8862088600001,,None,1,,,,,,,,,,,,,,elpida1310,001,2023-10-13_13h37.24.132,Oddball_task,2022.2.5,59.86611541946819,
standard,soundFiles/250Hz_44100Hz_16bit_05sec.wav',None,250,,,,,21,1,85,0,,,,,447.40281589999995,448.3869012,448.3862724600001,450.88726399999996,None,1,,,,,,,,,,,,,,elpida1310,001,2023-10-13_13h37.24.132,Oddball_task,2022.2.5,59.86611541946819,
standard,soundFiles/250Hz_44100Hz_16bit_05sec.wav',None,250,,,,,21,2,86,1,,,,,450.90374759999986,451.8873911999999,451.8858739599998,,None,1,,,,,,,,,,,,,,elpida1310,001,2023-10-13_13h37.24.132,Oddball_task,2022.2.5,59.86611541946819,
target,soundFiles/1200Hz_-3dBFS_3s_44.1kHz.wav',t,1200,,,,,21,3,87,3,,,,,454.4023757,455.38642040000013,455.3856067600002,457.88543070000014,t,1,,0.7739925999994739,,,,,,,,,,,,elpida1310,001,2023-10-13_13h37.24.132,Oddball_task,2022.2.5,59.86611541946819,
standard,soundFiles/250Hz_44100Hz_16bit_05sec.wav',None,250,,,,,22,0,88,0,,,,,457.90365040000006,458.8858699000002,458.88630846,461.38562600000023,None,1,,,,,,,,,,,,,,elpida1310,001,2023-10-13_13h37.24.132,Oddball_task,2022.2.5,59.86611541946819,
standard,soundFiles/250Hz_44100Hz_16bit_05sec.wav',None,250,,,,,22,1,89,1,,,,,461.4028969000001,462.38663499999984,462.38622796000004,464.88507470000013,None,1,,,,,,,,,,,,,,elpida1310,001,2023-10-13_13h37.24.132,Oddball_task,2022.2.5,59.86611541946819,
standard,soundFiles/250Hz_44100Hz_16bit_05sec.wav',None,250,,,,,22,2,90,1,,,,,464.90272129999994,465.8860479,465.8854574600002,468.3846262000002,None,1,,,,,,,,,,,,,,elpida1310,001,2023-10-13_13h37.24.132,Oddball_task,2022.2.5,59.86611541946819,
standard,soundFiles/250Hz_44100Hz_16bit_05sec.wav',None,250,,,,,22,3,91,2,,,,,468.40206590000025,469.3849534000001,469.38584926,471.88508950000005,None,1,,,,,,,,,,,,,,elpida1310,001,2023-10-13_13h37.24.132,Oddball_task,2022.2.5,59.86611541946819,
standard,soundFiles/250Hz_44100Hz_16bit_05sec.wav',None,250,,,,,23,0,92,1,,,,,471.90216469999996,472.8855401999999,472.88572795999994,475.38510369999995,None,1,,,,,,,,,,,,,,elpida1310,001,2023-10-13_13h37.24.132,Oddball_task,2022.2.5,59.86611541946819,
target,soundFiles/1200Hz_-3dBFS_3s_44.1kHz.wav',t,1200,,,,,23,1,93,3,,,,,475.4022021999999,476.38542240000015,476.38461996,478.88535379999985,t,1,,0.5852501999997912,,,,,,,,,,,,elpida1310,001,2023-10-13_13h37.24.132,Oddball_task,2022.2.5,59.86611541946819,
target,soundFiles/1200Hz_-3dBFS_3s_44.1kHz.wav',t,1200,,,,,23,2,94,3,,,,,478.9019237000002,479.88573570000017,479.8855127600002,482.38539549999996,t,1,,0.8084482999997817,,,,,,,,,,,,elpida1310,001,2023-10-13_13h37.24.132,Oddball_task,2022.2.5,59.86611541946819,
standard,soundFiles/250Hz_44100Hz_16bit_05sec.wav',None,250,,,,,23,3,95,2,,,,,482.4024623,483.38560270000016,483.38583386000005,485.88391409999986,None,1,,,,,,,484.3843646999999,,,,,,,elpida1310,001,2023-10-13_13h37.24.132,Oddball_task,2022.2.5,59.86611541946819,
standard,soundFiles/250Hz_44100Hz_16bit_05sec.wav',None,250,,,,,24,0,96,2,,,,,485.9020608000001,486.88429810000025,486.88457215999983,489.3840670999998,None,1,,,,,,,,,,,,,,elpida1310,001,2023-10-13_13h37.24.132,Oddball_task,2022.2.5,59.86611541946819,
standard,soundFiles/250Hz_44100Hz_16bit_05sec.wav',None,250,,,,,24,1,97,0,,,,,489.40216420000024,490.38329780000004,490.38472165999997,492.8829587,None,1,,,,,,,,,,,,,,elpida1310,001,2023-10-13_13h37.24.132,Oddball_task,2022.2.5,59.86611541946819,
standard,soundFiles/250Hz_44100Hz_16bit_05sec.wav',None,250,,,,,24,2,98,2,,,,,492.9006088000001,493.88340800000014,493.88490535999995,496.38272860000006,None,1,,,,,,,,,,,,,,elpida1310,001,2023-10-13_13h37.24.132,Oddball_task,2022.2.5,59.86611541946819,
standard,soundFiles/250Hz_44100Hz_16bit_05sec.wav',None,250,,,,,24,3,99,0,,,,,496.3998296999998,497.3830600000001,497.3837142599998,499.88429129999986,None,1,,,,,,,,,,,,,,elpida1310,001,2023-10-13_13h37.24.132,Oddball_task,2022.2.5,59.86611541946819,
target,soundFiles/1200Hz_-3dBFS_3s_44.1kHz.wav',t,1200,,,,,25,0,100,3,,,,,499.89957259999983,500.8856073000002,500.8826001599998,,t,1,,0.7237888999998177,,,,,,,,,,,,elpida1310,001,2023-10-13_13h37.24.132,Oddball_task,2022.2.5,59.86611541946819,
standard,soundFiles/250Hz_44100Hz_16bit_05sec.wav',None,250,,,,,25,1,101,2,,,,,503.39935449999984,504.38344970000026,504.38260405999995,506.8833774999998,None,1,,,,,,,505.3836374000002,,,,,,,elpida1310,001,2023-10-13_13h37.24.132,Oddball_task,2022.2.5,59.86611541946819,
standard,soundFiles/250Hz_44100Hz_16bit_05sec.wav',None,250,,,,,25,2,102,2,,,,,506.89884519999987,507.8843523999999,507.88258315999997,,None,1,,,,,,,,,,,,,,elpida1310,001,2023-10-13_13h37.24.132,Oddball_task,2022.2.5,59.86611541946819,
target,soundFiles/1200Hz_-3dBFS_3s_44.1kHz.wav',t,1200,,,,,25,3,103,3,,,,,510.3989391,511.3825445000002,511.38285225999994,513.8824706,t,1,,0.6925013000000035,,,,,,,,,,,,elpida1310,001,2023-10-13_13h37.24.132,Oddball_task,2022.2.5,59.86611541946819,
standard,soundFiles/250Hz_44100Hz_16bit_05sec.wav',None,250,,,,,26,0,104,2,,,,,513.8983340999998,514.8831770000002,514.8823781600001,,None,1,,,,,,,,,,,,,,elpida1310,001,2023-10-13_13h37.24.132,Oddball_task,2022.2.5,59.86611541946819,
target,soundFiles/1200Hz_-3dBFS_3s_44.1kHz.wav',t,1200,,,,,26,1,105,3,,,,,517.3984515000002,518.3826994000001,518.3819797600001,520.8824448999999,t,1,,0.7107323999998698,,,,,,,,,,,,elpida1310,001,2023-10-13_13h37.24.132,Oddball_task,2022.2.5,59.86611541946819,
target,soundFiles/1200Hz_-3dBFS_3s_44.1kHz.wav',t,1200,,,,,26,2,106,3,,,,,520.8982753,521.8841898000001,521.8818280600001,,t,1,,0.751544599999761,,,,,,,,,,,,elpida1310,001,2023-10-13_13h37.24.132,Oddball_task,2022.2.5,59.86611541946819,
standard,soundFiles/250Hz_44100Hz_16bit_05sec.wav',None,250,,,,,26,3,107,2,,,,,524.3979616000001,525.3821886999999,525.3814274600002,527.8820483,None,1,,,,,,,526.3818867999998,,,,,,,elpida1310,001,2023-10-13_13h37.24.132,Oddball_task,2022.2.5,59.86611541946819,
standard,soundFiles/250Hz_44100Hz_16bit_05sec.wav',None,250,,,,,27,0,108,2,,,,,527.8974773,528.8819038000001,528.88174306,,None,1,,,,,,,,,,,,,,elpida1310,001,2023-10-13_13h37.24.132,Oddball_task,2022.2.5,59.86611541946819,
standard,soundFiles/250Hz_44100Hz_16bit_05sec.wav',None,250,,,,,27,1,109,0,,,,,531.3978766,532.3816231000001,532.3817778599998,534.8812484,None,1,,,,,,,,,,,,,,elpida1310,001,2023-10-13_13h37.24.132,Oddball_task,2022.2.5,59.86611541946819,
standard,soundFiles/250Hz_44100Hz_16bit_05sec.wav',None,250,,,,,27,2,110,1,,,,,534.8975836,535.8810564999999,535.88093516,538.381089,None,1,,,,,,,,,,,,,,elpida1310,001,2023-10-13_13h37.24.132,Oddball_task,2022.2.5,59.86611541946819,
standard,soundFiles/250Hz_44100Hz_16bit_05sec.wav',None,250,,,,,27,3,111,1,,,,,538.3971600999998,539.3814105000001,539.3806832600001,541.8819328,None,1,,,,,,,,,,,,,,elpida1310,001,2023-10-13_13h37.24.132,Oddball_task,2022.2.5,59.86611541946819,
standard,soundFiles/250Hz_44100Hz_16bit_05sec.wav',None,250,,,,,28,0,112,0,,,,,541.8976765000002,542.8812763999999,542.8801438600001,545.3801994999999,None,1,,,,,,,,,,,,,,elpida1310,001,2023-10-13_13h37.24.132,Oddball_task,2022.2.5,59.86611541946819,
standard,soundFiles/250Hz_44100Hz_16bit_05sec.wav',None,250,,,,,28,1,113,2,,,,,545.3985946000003,546.3798206000001,546.38178636,548.8801013000002,None,1,,,,,,,,,,,,,,elpida1310,001,2023-10-13_13h37.24.132,Oddball_task,2022.2.5,59.86611541946819,
standard,soundFiles/250Hz_44100Hz_16bit_05sec.wav',None,250,,,,,28,2,114,2,,,,,548.8983300999998,549.8806224,549.88090786,552.3796366000001,None,1,,,,,,,,,,,,,,elpida1310,001,2023-10-13_13h37.24.132,Oddball_task,2022.2.5,59.86611541946819,
standard,soundFiles/250Hz_44100Hz_16bit_05sec.wav',None,250,,,,,28,3,115,2,,,,,552.398169,553.3799791000001,553.3808796599999,555.8797462000002,None,1,,,,,,,,,,,,,,elpida1310,001,2023-10-13_13h37.24.132,Oddball_task,2022.2.5,59.86611541946819,
standard,soundFiles/250Hz_44100Hz_16bit_05sec.wav',None,250,,,,,29,0,116,0,,,,,555.8967302000001,556.8793138000001,556.8800482600002,559.3792423999998,None,1,,,,,,,,,,,,,,elpida1310,001,2023-10-13_13h37.24.132,Oddball_task,2022.2.5,59.86611541946819,
standard,soundFiles/250Hz_44100Hz_16bit_05sec.wav',None,250,,,,,29,1,117,1,,,,,559.3967901000001,560.3788199,560.3803660599999,562.8789553000001,None,1,,,,,,,,,,,,,,elpida1310,001,2023-10-13_13h37.24.132,Oddball_task,2022.2.5,59.86611541946819,
standard,soundFiles/250Hz_44100Hz_16bit_05sec.wav',None,250,,,,,29,2,118,0,,,,,562.8969089000002,563.8787925000001,563.8797975599998,566.3791597,None,1,,,,,,,,,,,,,,elpida1310,001,2023-10-13_13h37.24.132,Oddball_task,2022.2.5,59.86611541946819,
standard,soundFiles/250Hz_44100Hz_16bit_05sec.wav',None,250,,,,,29,3,119,0,,,,,566.3966487000002,567.3784621999998,567.37891156,569.8787123000002,None,1,,,,,,,,,,,,,,elpida1310,001,2023-10-13_13h37.24.132,Oddball_task,2022.2.5,59.86611541946819,
target,soundFiles/1200Hz_-3dBFS_3s_44.1kHz.wav',t,1200,,,,,30,0,120,3,,,,,569.8959714000002,570.8787194000001,570.87901726,573.3780809999998,t,1,,0.6582314999996015,,,,,,,,,,,,elpida1310,001,2023-10-13_13h37.24.132,Oddball_task,2022.2.5,59.86611541946819,
standard,soundFiles/250Hz_44100Hz_16bit_05sec.wav',None,250,,,,,30,1,121,0,,,,,573.3959196000001,574.3780007999999,574.3786356600001,576.8792527,None,1,,,,,,,,,,,,,,elpida1310,001,2023-10-13_13h37.24.132,Oddball_task,2022.2.5,59.86611541946819,
target,soundFiles/1200Hz_-3dBFS_3s_44.1kHz.wav',t,1200,,,,,30,2,122,3,,,,,576.8958148000002,577.8781238000001,577.8796608599998,580.3783987000002,t,1,,0.6155224999997699,,,,,,,,,,,,elpida1310,001,2023-10-13_13h37.24.132,Oddball_task,2022.2.5,59.86611541946819,
standard,soundFiles/250Hz_44100Hz_16bit_05sec.wav',None,250,,,,,30,3,123,1,,,,,580.3971489,581.3780015000002,581.3794350599999,583.8779344999998,None,1,,,,,,,,,,,,,,elpida1310,001,2023-10-13_13h37.24.132,Oddball_task,2022.2.5,59.86611541946819,
target,soundFiles/1200Hz_-3dBFS_3s_44.1kHz.wav',t,1200,,,,,31,0,124,3,,,,,583.8948074,584.8790521000001,584.8775444599999,,t,1,,0.6585418999998183,,,,,,,,,,,,elpida1310,001,2023-10-13_13h37.24.132,Oddball_task,2022.2.5,59.86611541946819,
standard,soundFiles/250Hz_44100Hz_16bit_05sec.wav',None,250,,,,,31,1,125,2,,,,,587.3945210000002,588.3778725000002,588.3775669600002,,None,1,,,,,,,,,,,,,,elpida1310,001,2023-10-13_13h37.24.132,Oddball_task,2022.2.5,59.86611541946819,
standard,soundFiles/250Hz_44100Hz_16bit_05sec.wav',None,250,,,,,31,2,126,0,,,,,590.8943711000002,591.8790233,591.8773922600001,,None,1,,,,,,,,,,,,,,elpida1310,001,2023-10-13_13h37.24.132,Oddball_task,2022.2.5,59.86611541946819,
standard,soundFiles/250Hz_44100Hz_16bit_05sec.wav',None,250,,,,,31,3,127,2,,,,,594.3940327999999,595.3773609999998,595.3769900599998,597.8786883000002,None,1,,,,,,,,,,,,,,elpida1310,001,2023-10-13_13h37.24.132,Oddball_task,2022.2.5,59.86611541946819,
standard,soundFiles/250Hz_44100Hz_16bit_05sec.wav',None,250,,,,,32,0,128,2,,,,,597.8944056999999,598.8779444000002,598.8780781600001,,None,1,,,,,,,,,,,,,,elpida1310,001,2023-10-13_13h37.24.132,Oddball_task,2022.2.5,59.86611541946819,
target,soundFiles/1200Hz_-3dBFS_3s_44.1kHz.wav',t,1200,,,,,32,1,129,3,,,,,601.3936619000001,602.3779776000001,602.3767448599999,,t,1,,0.7350722999999562,,,,,,,,,,,,elpida1310,001,2023-10-13_13h37.24.132,Oddball_task,2022.2.5,59.86611541946819,
target,soundFiles/1200Hz_-3dBFS_3s_44.1kHz.wav',t,1200,,,,,32,2,130,3,,,,,604.8935009000002,605.8773203999999,605.8768189599998,608.3781622000001,t,1,,1.0688463999995292,,,,,,,,,,,,elpida1310,001,2023-10-13_13h37.24.132,Oddball_task,2022.2.5,59.86611541946819,
target,soundFiles/1200Hz_-3dBFS_3s_44.1kHz.wav',t,1200,,,,,32,3,131,3,,,,,608.3929757999999,609.3763368999998,609.3771200600002,611.8760934000002,t,1,,0.9637089000002561,,,,,,,,,,,,elpida1310,001,2023-10-13_13h37.24.132,Oddball_task,2022.2.5,59.86611541946819,
standard,soundFiles/250Hz_44100Hz_16bit_05sec.wav',None,250,,,,,33,0,132,1,,,,,611.8934684000001,612.8763930999999,612.8767095599999,615.3763125,None,1,,,,,,,,,,,,,,elpida1310,001,2023-10-13_13h37.24.132,Oddball_task,2022.2.5,59.86611541946819,
standard,soundFiles/250Hz_44100Hz_16bit_05sec.wav',None,250,,,,,33,1,133,1,,,,,615.3935826000002,616.3756868,616.37678686,618.8760129000002,None,1,,,,,,,,,,,,,,elpida1310,001,2023-10-13_13h37.24.132,Oddball_task,2022.2.5,59.86611541946819,
standard,soundFiles/250Hz_44100Hz_16bit_05sec.wav',None,250,,,,,33,2,134,1,,,,,618.8937501999999,619.8763530000001,619.8767956600002,622.3753308999999,None,1,,,,,,,620.8757914000003,,,,,,,elpida1310,001,2023-10-13_13h37.24.132,Oddball_task,2022.2.5,59.86611541946819,
target,soundFiles/1200Hz_-3dBFS_3s_44.1kHz.wav',t,1200,,,,,33,3,135,3,,,,,622.3939171000002,623.3758185000002,623.3764626600002,625.8756764999998,t,1,,0.7808173999997052,,,,,,,,,,,,elpida1310,001,2023-10-13_13h37.24.132,Oddball_task,2022.2.5,59.86611541946819,
standard,soundFiles/250Hz_44100Hz_16bit_05sec.wav',None,250,,,,,34,0,136,1,,,,,625.8928185999998,626.8747200000003,626.8758187599999,629.3752141999998,None,1,,,,,,,,,,,,,,elpida1310,001,2023-10-13_13h37.24.132,Oddball_task,2022.2.5,59.86611541946819,
standard,soundFiles/250Hz_44100Hz_16bit_05sec.wav',None,250,,,,,34,1,137,0,,,,,629.3924803999998,630.3754330000002,630.3756650600001,632.8749370999999,None,1,,,,,,,,,,,,,,elpida1310,001,2023-10-13_13h37.24.132,Oddball_task,2022.2.5,59.86611541946819,
target,soundFiles/1200Hz_-3dBFS_3s_44.1kHz.wav',t,1200,,,,,34,2,138,3,,,,,632.893302,633.8761605999998,633.8754742600001,636.3750942000001,t,1,,0.7685215000001335,,,,,,,,,,,,elpida1310,001,2023-10-13_13h37.24.132,Oddball_task,2022.2.5,59.86611541946819,
standard,soundFiles/250Hz_44100Hz_16bit_05sec.wav',None,250,,,,,34,3,139,2,,,,,636.3931888000002,637.3756916000002,637.3754567600001,639.8742496,None,1,,,,,,,,,,,,,,elpida1310,001,2023-10-13_13h37.24.132,Oddball_task,2022.2.5,59.86611541946819,
target,soundFiles/1200Hz_-3dBFS_3s_44.1kHz.wav',t,1200,,,,,35,0,140,3,,,,,639.8919516999999,640.8749698000001,640.87553026,643.3736106000001,t,1,,0.8651541999997789,,,,,641.8741249,,,,,,,elpida1310,001,2023-10-13_13h37.24.132,Oddball_task,2022.2.5,59.86611541946819,
standard,soundFiles/250Hz_44100Hz_16bit_05sec.wav',None,250,,,,,35,1,141,2,,,,,643.3918017999999,644.3735931000001,644.37476266,646.8741322999999,None,1,,,,,,,,,,,,,,elpida1310,001,2023-10-13_13h37.24.132,Oddball_task,2022.2.5,59.86611541946819,
standard,soundFiles/250Hz_44100Hz_16bit_05sec.wav',None,250,,,,,35,2,142,0,,,,,646.8918927999998,647.8738925000002,647.87484496,650.3741245000001,None,1,,,,,,,,,,,,,,elpida1310,001,2023-10-13_13h37.24.132,Oddball_task,2022.2.5,59.86611541946819,
target,soundFiles/1200Hz_-3dBFS_3s_44.1kHz.wav',t,1200,,,,,35,3,143,3,,,,,650.3919071,651.3742542,651.3745825600001,653.8739088000002,t,1,,0.7097620999998071,,,,,,,,,,,,elpida1310,001,2023-10-13_13h37.24.132,Oddball_task,2022.2.5,59.86611541946819,
standard,soundFiles/250Hz_44100Hz_16bit_05sec.wav',None,250,,,,,36,0,144,0,,,,,653.8907207000002,654.8734319999999,654.8743198600002,657.3734211000001,None,1,,,,,,,,,,,,,,elpida1310,001,2023-10-13_13h37.24.132,Oddball_task,2022.2.5,59.86611541946819,
standard,soundFiles/250Hz_44100Hz_16bit_05sec.wav',None,250,,,,,36,1,145,0,,,,,657.3905803000002,658.3742348999999,658.3739215600001,660.873227,None,1,,,,,,,,660.8924132000002,,,,,,elpida1310,001,2023-10-13_13h37.24.132,Oddball_task,2022.2.5,59.86611541946819,
target,soundFiles/1200Hz_-3dBFS_3s_44.1kHz.wav',t,1200,,,,,36,2,146,3,,,,,660.8924132000002,661.8727334,661.8738707599998,664.3727806000002,t,1,,0.7204168999996909,,,,,,,,,,,,elpida1310,001,2023-10-13_13h37.24.132,Oddball_task,2022.2.5,59.86611541946819,
standard,soundFiles/250Hz_44100Hz_16bit_05sec.wav',None,250,,,,,36,3,147,1,,,,,664.4059267000002,665.3726000000001,665.37430466,667.8729401999999,None,1,,,,,,,,,,,,,,elpida1310,001,2023-10-13_13h37.24.132,Oddball_task,2022.2.5,59.86611541946819,
target,soundFiles/1200Hz_-3dBFS_3s_44.1kHz.wav',t,1200,,,,,37,0,148,3,,,,,667.9066788999999,668.8729389999999,668.8734468599998,671.3726557999998,t,1,,0.7719121000000086,,,,,,,,,,,,elpida1310,001,2023-10-13_13h37.24.132,Oddball_task,2022.2.5,59.86611541946819,
target,soundFiles/1200Hz_-3dBFS_3s_44.1kHz.wav',t,1200,,,,,37,1,149,3,,,,,671.4056295999999,672.3721036000002,672.3734084599998,674.8725878,t,1,,0.8715080999995735,,,,,,,,,,,,elpida1310,001,2023-10-13_13h37.24.132,Oddball_task,2022.2.5,59.86611541946819,
standard,soundFiles/250Hz_44100Hz_16bit_05sec.wav',None,250,,,,,37,2,150,0,,,,,674.9056518000002,675.8721276000001,675.8735773599999,678.3720847,None,1,,,,,,,,,,,,,,elpida1310,001,2023-10-13_13h37.24.132,Oddball_task,2022.2.5,59.86611541946819,
standard,soundFiles/250Hz_44100Hz_16bit_05sec.wav',None,250,,,,,37,3,151,1,,,,,678.4055434000002,679.3729333000001,679.37277986,681.8716322999999,None,1,,,,,,,,,,,,,,elpida1310,001,2023-10-13_13h37.24.132,Oddball_task,2022.2.5,59.86611541946819,
standard,soundFiles/250Hz_44100Hz_16bit_05sec.wav',None,250,,,,,38,0,152,2,,,,,681.9049685,682.8899113000002,682.88822766,,None,1,,,,,,,,,,,,,,elpida1310,001,2023-10-13_13h37.24.132,Oddball_task,2022.2.5,59.86611541946819,
standard,soundFiles/250Hz_44100Hz_16bit_05sec.wav',None,250,,,,,38,1,153,1,,,,,685.4045842,686.3885168000002,686.3888851600002,688.8890678000002,None,1,,,,,,,,,,,,,,elpida1310,001,2023-10-13_13h37.24.132,Oddball_task,2022.2.5,59.86611541946819,
standard,soundFiles/250Hz_44100Hz_16bit_05sec.wav',None,250,,,,,38,2,154,0,,,,,688.9052964000002,689.8890519000001,689.8883859599998,,None,1,,,,,,,,,,,,,,elpida1310,001,2023-10-13_13h37.24.132,Oddball_task,2022.2.5,59.86611541946819,
standard,soundFiles/250Hz_44100Hz_16bit_05sec.wav',None,250,,,,,38,3,155,2,,,,,692.4045322000002,693.3886934000002,693.3882096599998,,None,1,,,,,,,,,,,,,,elpida1310,001,2023-10-13_13h37.24.132,Oddball_task,2022.2.5,59.86611541946819,
standard,soundFiles/250Hz_44100Hz_16bit_05sec.wav',None,250,,,,,39,0,156,2,,,,,695.9040810000001,696.8884026999999,696.8879872599998,,None,1,,,,,,,,,,,,,,elpida1310,001,2023-10-13_13h37.24.132,Oddball_task,2022.2.5,59.86611541946819,
target,soundFiles/1200Hz_-3dBFS_3s_44.1kHz.wav',t,1200,,,,,39,1,157,3,,,,,699.4039318,700.3879937000002,700.3871886600002,,t,1,,0.8573792000001959,,,,,,,,,,,,elpida1310,001,2023-10-13_13h37.24.132,Oddball_task,2022.2.5,59.86611541946819,
standard,soundFiles/250Hz_44100Hz_16bit_05sec.wav',None,250,,,,,39,2,158,1,,,,,702.9034388999999,703.8876688,703.88652596,706.3879683,None,1,,,,,,,,,,,,,,elpida1310,001,2023-10-13_13h37.24.132,Oddball_task,2022.2.5,59.86611541946819,
target,soundFiles/1200Hz_-3dBFS_3s_44.1kHz.wav',t,1200,,,,,39,3,159,3,,,,,706.4035405,707.3880478000001,707.38692006,709.8885211000002,t,1,,0.9522210999998606,,,,,708.3874598000002,,,,,,,elpida1310,001,2023-10-13_13h37.24.132,Oddball_task,2022.2.5,59.86611541946819,
standard,soundFiles/250Hz_44100Hz_16bit_05sec.wav',None,250,,,,,40,0,160,2,,,,,709.9043310000002,710.8880322,710.8868314600002,,None,1,,,,,,,,,,,,,,elpida1310,001,2023-10-13_13h37.24.132,Oddball_task,2022.2.5,59.86611541946819,
standard,soundFiles/250Hz_44100Hz_16bit_05sec.wav',None,250,,,,,40,1,161,0,,,,,713.4027925999999,714.3870007,714.3863369600001,716.8880438000001,None,1,,,,,,,,,,,,,,elpida1310,001,2023-10-13_13h37.24.132,Oddball_task,2022.2.5,59.86611541946819,
standard,soundFiles/250Hz_44100Hz_16bit_05sec.wav',None,250,,,,,40,2,162,1,,,,,716.9033284000002,717.8874178000001,717.8862281600002,720.3869146000002,None,1,,,,,,,,,,,,,,elpida1310,001,2023-10-13_13h37.24.132,Oddball_task,2022.2.5,59.86611541946819,
target,soundFiles/1200Hz_-3dBFS_3s_44.1kHz.wav',t,1200,,,,,40,3,163,3,,,,,720.4029283999998,721.3891462000001,721.38664816,,t,1,,0.7376444999999876,,,,,,,,,,,,elpida1310,001,2023-10-13_13h37.24.132,Oddball_task,2022.2.5,59.86611541946819,
standard,soundFiles/250Hz_44100Hz_16bit_05sec.wav',None,250,,,,,41,0,164,0,,,,,723.9027734000001,724.8873830000002,724.88605196,,None,1,,,,,,,,,,,,,,elpida1310,001,2023-10-13_13h37.24.132,Oddball_task,2022.2.5,59.86611541946819,
standard,soundFiles/250Hz_44100Hz_16bit_05sec.wav',None,250,,,,,41,1,165,1,,,,,727.4022301999998,728.387193,728.38570456,,None,1,,,,,,,729.3858460000001,,,,,,,elpida1310,001,2023-10-13_13h37.24.132,Oddball_task,2022.2.5,59.86611541946819,
standard,soundFiles/250Hz_44100Hz_16bit_05sec.wav',None,250,,,,,41,2,166,2,,,,,730.9028971000002,731.8862795999999,731.8856432599998,734.3850209000002,None,1,,,,,,,,,,,,,,elpida1310,001,2023-10-13_13h37.24.132,Oddball_task,2022.2.5,59.86611541946819,
standard,soundFiles/250Hz_44100Hz_16bit_05sec.wav',None,250,,,,,41,3,167,1,,,,,734.4027875000002,735.3854397999999,735.3864984600002,737.8849126,None,1,,,,,,,,,,,,,,elpida1310,001,2023-10-13_13h37.24.132,Oddball_task,2022.2.5,59.86611541946819,
standard,soundFiles/250Hz_44100Hz_16bit_05sec.wav',None,250,,,,,42,0,168,1,,,,,737.9025839999999,738.8848031000002,738.8859233599999,741.3852921000002,None,1,,,,,,,,,,,,,,elpida1310,001,2023-10-13_13h37.24.132,Oddball_task,2022.2.5,59.86611541946819,
standard,soundFiles/250Hz_44100Hz_16bit_05sec.wav',None,250,,,,,42,1,169,1,,,,,741.4035786,742.3841775999999,742.3851494600001,744.8869626999999,None,1,,,,,,,,,,,,,,elpida1310,001,2023-10-13_13h37.24.132,Oddball_task,2022.2.5,59.86611541946819,
target,soundFiles/1200Hz_-3dBFS_3s_44.1kHz.wav',t,1200,,,,,42,2,170,3,,,,,744.9014504000002,745.8858381999999,745.8843635599999,,t,1,,0.7524436999997306,,,,,,,,,,,,elpida1310,001,2023-10-13_13h37.24.132,Oddball_task,2022.2.5,59.86611541946819,
standard,soundFiles/250Hz_44100Hz_16bit_05sec.wav',None,250,,,,,42,3,171,2,,,,,748.4008109000001,749.385788,749.3846040599999,,None,1,,,,,,,750.3854738,,,,,,,elpida1310,001,2023-10-13_13h37.24.132,Oddball_task,2022.2.5,59.86611541946819,
standard,soundFiles/250Hz_44100Hz_16bit_05sec.wav',None,250,,,,,43,0,172,1,,,,,751.8999434000002,752.8843502,752.8841473599998,755.3849875999999,None,1,,,,,,,,,,,,,,elpida1310,001,2023-10-13_13h37.24.132,Oddball_task,2022.2.5,59.86611541946819,
standard,soundFiles/250Hz_44100Hz_16bit_05sec.wav',None,250,,,,,43,1,173,2,,,,,755.4005185999999,756.3847243999999,756.3837498599999,,None,1,,,,,,,,,,,,,,elpida1310,001,2023-10-13_13h37.24.132,Oddball_task,2022.2.5,59.86611541946819,
standard,soundFiles/250Hz_44100Hz_16bit_05sec.wav',None,250,,,,,43,2,174,0,,,,,758.8999576000001,759.8841204,759.8831411600002,762.3838107000001,None,1,,,,,,,,,,,,,,elpida1310,001,2023-10-13_13h37.24.132,Oddball_task,2022.2.5,59.86611541946819,
standard,soundFiles/250Hz_44100Hz_16bit_05sec.wav',None,250,,,,,43,3,175,0,,,,,762.3998262,763.3853042000001,763.3828708600001,,None,1,,,,,,,,,,,,,,elpida1310,001,2023-10-13_13h37.24.132,Oddball_task,2022.2.5,59.86611541946819,
standard,soundFiles/250Hz_44100Hz_16bit_05sec.wav',None,250,,,,,44,0,176,1,,,,,765.8998483,766.8854950999998,766.88341866,,None,1,,,,,,,,,,,,,,elpida1310,001,2023-10-13_13h37.24.132,Oddball_task,2022.2.5,59.86611541946819,
target,soundFiles/1200Hz_-3dBFS_3s_44.1kHz.wav',t,1200,,,,,44,1,177,3,,,,,769.3990622000001,770.3834238,770.3828271599998,772.8836077999999,t,1,,0.804060699999809,,,,,,,,,,,,elpida1310,001,2023-10-13_13h37.24.132,Oddball_task,2022.2.5,59.86611541946819,
standard,soundFiles/250Hz_44100Hz_16bit_05sec.wav',None,250,,,,,44,2,178,0,,,,,772.8993667999998,773.8828060999999,773.8826724600001,776.3826727999999,None,1,,,,,,,,,,,,,,elpida1310,001,2023-10-13_13h37.24.132,Oddball_task,2022.2.5,59.86611541946819,
standard,soundFiles/250Hz_44100Hz_16bit_05sec.wav',None,250,,,,,44,3,179,2,,,,,776.3987963,777.3831681000001,777.3824957600002,779.8834711,None,1,,,,,,,,,,,,,,elpida1310,001,2023-10-13_13h37.24.132,Oddball_task,2022.2.5,59.86611541946819,
standard,soundFiles/250Hz_44100Hz_16bit_05sec.wav',None,250,,,,,45,0,180,0,,,,,779.8991354999998,780.8825686999999,780.8825196599998,783.3840883000003,None,1,,,,,,,,,,,,,,elpida1310,001,2023-10-13_13h37.24.132,Oddball_task,2022.2.5,59.86611541946819,
target,soundFiles/1200Hz_-3dBFS_3s_44.1kHz.wav',t,1200,,,,,45,1,181,3,,,,,783.3994063,784.3829833,784.38273116,786.8836277,t,1,,0.704495500000121,,,,,,,,,,,,elpida1310,001,2023-10-13_13h37.24.132,Oddball_task,2022.2.5,59.86611541946819,
standard,soundFiles/250Hz_44100Hz_16bit_05sec.wav',None,250,,,,,45,2,182,0,,,,,786.8985551000001,787.8829242000002,787.88207756,,None,1,,,,,,,788.8842463999999,,,,,,,elpida1310,001,2023-10-13_13h37.24.132,Oddball_task,2022.2.5,59.86611541946819,
standard,soundFiles/250Hz_44100Hz_16bit_05sec.wav',None,250,,,,,45,3,183,2,,,,,790.3980093,791.3823154000002,791.38138026,793.8822633999998,None,1,,,,,,,,,,,,,,elpida1310,001,2023-10-13_13h37.24.132,Oddball_task,2022.2.5,59.86611541946819,
standard,soundFiles/250Hz_44100Hz_16bit_05sec.wav',None,250,,,,,46,0,184,2,,,,,793.8978132000002,794.8816990999999,794.8815825600002,797.3820037,None,1,,,,,,,,,,,,,,elpida1310,001,2023-10-13_13h37.24.132,Oddball_task,2022.2.5,59.86611541946819,
standard,soundFiles/250Hz_44100Hz_16bit_05sec.wav',None,250,,,,,46,1,185,2,,,,,797.3976265000001,798.3819702000001,798.3807344600002,800.8823834999998,None,1,,,,,,,,,,,,,,elpida1310,001,2023-10-13_13h37.24.132,Oddball_task,2022.2.5,59.86611541946819,
standard,soundFiles/250Hz_44100Hz_16bit_05sec.wav',None,250,,,,,46,2,186,0,,,,,800.8986447000002,801.8810729000002,801.88119136,804.3814050999999,None,1,,,,,,,,,,,,,,elpida1310,001,2023-10-13_13h37.24.132,Oddball_task,2022.2.5,59.86611541946819,
standard,soundFiles/250Hz_44100Hz_16bit_05sec.wav',None,250,,,,,46,3,187,2,,,,,804.3976342999999,805.3816763999998,805.3808296600002,,None,1,,,,,,,,,,,,,,elpida1310,001,2023-10-13_13h37.24.132,Oddball_task,2022.2.5,59.86611541946819,
standard,soundFiles/250Hz_44100Hz_16bit_05sec.wav',None,250,,,,,47,0,188,0,,,,,807.8976084999999,808.8815063000002,808.8806343600002,811.3809976000002,None,1,,,,,,,,,,,,,,elpida1310,001,2023-10-13_13h37.24.132,Oddball_task,2022.2.5,59.86611541946819,
target,soundFiles/1200Hz_-3dBFS_3s_44.1kHz.wav',t,1200,,,,,47,1,189,3,,,,,811.3966192000003,812.3807139999999,812.38022286,814.8810116,t,1,,1.0108878999994886,,,,,,,,,,,,elpida1310,001,2023-10-13_13h37.24.132,Oddball_task,2022.2.5,59.86611541946819,
standard,soundFiles/250Hz_44100Hz_16bit_05sec.wav',None,250,,,,,47,2,190,0,,,,,814.8977942000001,815.8808462000002,815.8797957600002,818.3800814000001,None,1,,,,,,,,,,,,,,elpida1310,001,2023-10-13_13h37.24.132,Oddball_task,2022.2.5,59.86611541946819,
target,soundFiles/1200Hz_-3dBFS_3s_44.1kHz.wav',t,1200,,,,,47,3,191,3,,,,,818.3962498000001,819.3805745999998,819.3798603600001,821.8802464999999,t,1,,0.6927371000001585,,,,,,,,,,,,elpida1310,001,2023-10-13_13h37.24.132,Oddball_task,2022.2.5,59.86611541946819,
standard,soundFiles/250Hz_44100Hz_16bit_05sec.wav',None,250,,,,,48,0,192,2,,,,,821.8963371999998,822.8802755000002,822.8796885600002,825.3800359000002,None,1,,,,,,,,,,,,,,elpida1310,001,2023-10-13_13h37.24.132,Oddball_task,2022.2.5,59.86611541946819,
target,soundFiles/1200Hz_-3dBFS_3s_44.1kHz.wav',t,1200,,,,,48,1,193,3,,,,,825.3960843,826.3793663000001,826.37969916,828.8792744000002,None,0,,,,,,,,,,,,,,elpida1310,001,2023-10-13_13h37.24.132,Oddball_task,2022.2.5,59.86611541946819,
standard,soundFiles/250Hz_44100Hz_16bit_05sec.wav',None,250,,,,,48,2,194,0,,,,,828.8977927999999,829.8790838,829.8800820600002,832.3790311000002,None,1,,,,,,,830.8796624000001,,,,,,,elpida1310,001,2023-10-13_13h37.24.132,Oddball_task,2022.2.5,59.86611541946819,
target,soundFiles/1200Hz_-3dBFS_3s_44.1kHz.wav',t,1200,,,,,48,3,195,3,,,,,832.3967536,833.3786292999998,833.3794373600001,835.8788703999999,t,1,,0.66898110000011,,,,,,,,,,,,elpida1310,001,2023-10-13_13h37.24.132,Oddball_task,2022.2.5,59.86611541946819,
standard,soundFiles/250Hz_44100Hz_16bit_05sec.wav',None,250,,,,,49,0,196,0,,,,,835.8963512,836.8789219999999,836.88000966,839.3788435000001,None,1,,,,,,,,,,,,,,elpida1310,001,2023-10-13_13h37.24.132,Oddball_task,2022.2.5,59.86611541946819,
standard,soundFiles/250Hz_44100Hz_16bit_05sec.wav',None,250,,,,,49,1,197,2,,,,,839.3961032000002,840.3790889000002,840.3795296599999,842.8790035000002,None,1,,,,,,,,,,,,,,elpida1310,001,2023-10-13_13h37.24.132,Oddball_task,2022.2.5,59.86611541946819,
standard,soundFiles/250Hz_44100Hz_16bit_05sec.wav',None,250,,,,,49,2,198,0,,,,,842.8964089000001,843.8794425000001,843.88020106,846.3785643000001,None,1,,,,,,,,,,,,,,elpida1310,001,2023-10-13_13h37.24.132,Oddball_task,2022.2.5,59.86611541946819,
standard,soundFiles/250Hz_44100Hz_16bit_05sec.wav',None,250,,,,,49,3,199,1,,,,,846.3966568999999,847.3790764999999,847.3804749600001,849.8789482000002,None,1,,,,,,,,,,,,,,elpida1310,001,2023-10-13_13h37.24.132,Oddball_task,2022.2.5,59.86611541946819,
,,,,,,,,,,,,,,,,,,,,,,,,,,,,,,849.8952815000002,852.8791019,852.8945736000001,e,31.675313599999754,elpida1310,001,2023-10-13_13h37.24.132,Oddball_task,2022.2.5,59.86611541946819,
