trial,file,corrAns,tone,trials.thisRepN,trials.thisTrialN,trials.thisN,trials.thisIndex,trials_2.thisRepN,trials_2.thisTrialN,trials_2.thisN,trials_2.thisIndex,instructions.started,key_resp_1.started,key_resp_1.keys,key_resp_1.rt,fixation.started,response.started,sound_1.started,response.stopped,response.keys,response.corr,response.rt,feedback_text.started,instructions_2.started,key_resp_2.started,key_resp_2.keys,key_resp_2.rt,sound_1.stopped,thank_you.started,exit_exp.started,thank_you.stopped,exit_exp.keys,exit_exp.rt,participant,session,date,expName,psychopyVersion,frameRate,
,,,,,,,,,,,,34.02973439999914,34.02973439999914,space,51.56537219999882,,,,,,,,,,,,,,,,,,,elpida_pilot,001,2023-09-22_16h27.13.014,Oddball_task,2022.2.5,59.959083921502476,
standard,soundFiles/1000Hz_-3dBFS_3s_44.1kHz.wav',s,1000,0,0,0,1,,,,,,,,,85.63838749999923,86.62410020000243,86.62372668000208,88.62482020000243,s,1,1.8271912999989581,88.6424829000025,,,,,,,,,,,elpida_pilot,001,2023-09-22_16h27.13.014,Oddball_task,2022.2.5,59.959083921502476,
standard,soundFiles/1000Hz_-3dBFS_3s_44.1kHz.wav',s,1000,0,1,1,0,,,,,,,,,89.62588930000129,90.6100213000027,90.61032128000116,92.61203030000252,s,1,0.9497430000010354,92.62837760000184,,,,,,,,,,,elpida_pilot,001,2023-09-22_16h27.13.014,Oddball_task,2022.2.5,59.959083921502476,
target,soundFiles/1200Hz_-3dBFS_3s_44.1kHz.wav',t,1200,0,2,2,3,,,,,,,,,93.62915340000109,94.61373920000187,94.61394637999948,96.6151783000023,t,1,1.0062415999964287,96.63175860000047,,,,,,,,,,,elpida_pilot,001,2023-09-22_16h27.13.014,Oddball_task,2022.2.5,59.959083921502476,
standard,soundFiles/1000Hz_-3dBFS_3s_44.1kHz.wav',s,1000,0,3,3,2,,,,,,,,,97.63259050000124,98.61727370000153,98.61671697999955,100.61882630000036,s,1,0.6367194000013114,100.63475069999913,,,,,,,,,,,elpida_pilot,001,2023-09-22_16h27.13.014,Oddball_task,2022.2.5,59.959083921502476,
,,,,,,,,,,,,,,,,,,,,,,,,101.63595890000215,101.63595890000215,space,2.346724399998493,,,,,,,elpida_pilot,001,2023-09-22_16h27.13.014,Oddball_task,2022.2.5,59.959083921502476,
standard,soundFiles/1000Hz_-3dBFS_3s_44.1kHz.wav',s,1000,,,,,0,0,0,2,,,,,104.02029319999929,104.9894830000012,104.98945897999911,106.99107560000266,s,1,0.7934191999993345,,,,,,,,,,,,elpida_pilot,001,2023-09-22_16h27.13.014,Oddball_task,2022.2.5,59.959083921502476,
standard,soundFiles/1000Hz_-3dBFS_3s_44.1kHz.wav',s,1000,,,,,0,1,1,0,,,,,107.0081276000019,107.99194590000116,107.99203598000204,109.99397080000199,s,1,0.38084170000001905,,,,,,,,,,,,elpida_pilot,001,2023-09-22_16h27.13.014,Oddball_task,2022.2.5,59.959083921502476,
standard,soundFiles/1000Hz_-3dBFS_3s_44.1kHz.wav',s,1000,,,,,0,2,2,2,,,,,110.01048440000159,110.99403929999971,110.99487528000137,112.99646050000229,s,1,1.7890803999980562,,,,,,,,,,,,elpida_pilot,001,2023-09-22_16h27.13.014,Oddball_task,2022.2.5,59.959083921502476,
standard,soundFiles/1000Hz_-3dBFS_3s_44.1kHz.wav',s,1000,,,,,0,3,3,0,,,,,113.01262720000159,113.99665500000265,113.99680087999914,115.99839509999947,s,1,1.6335776999985683,,,,,,,,,,,,elpida_pilot,001,2023-09-22_16h27.13.014,Oddball_task,2022.2.5,59.959083921502476,
standard,soundFiles/1000Hz_-3dBFS_3s_44.1kHz.wav',s,1000,,,,,1,0,4,0,,,,,116.01452620000055,116.99961199999962,116.99914618000221,119.00119430000268,s,1,0.9825688999990234,,,,,,,,,,,,elpida_pilot,001,2023-09-22_16h27.13.014,Oddball_task,2022.2.5,59.959083921502476,
target,soundFiles/1200Hz_-3dBFS_3s_44.1kHz.wav',t,1200,,,,,1,1,5,3,,,,,119.01707019999958,120.00132389999999,120.00227078000208,122.00308629999927,t,1,1.0669818999995186,,,,,,,,,,,,elpida_pilot,001,2023-09-22_16h27.13.014,Oddball_task,2022.2.5,59.959083921502476,
standard,soundFiles/1000Hz_-3dBFS_3s_44.1kHz.wav',s,1000,,,,,1,2,6,0,,,,,122.01998260000255,123.0039151000019,123.00431838000114,125.0055898999999,s,1,0.8924494999992021,,,,,,,,,,,,elpida_pilot,001,2023-09-22_16h27.13.014,Oddball_task,2022.2.5,59.959083921502476,
standard,soundFiles/1000Hz_-3dBFS_3s_44.1kHz.wav',s,1000,,,,,1,3,7,1,,,,,125.02207850000195,125.99062100000083,125.99047237999949,127.99251920000097,s,1,0.7824058999976842,,,,,,,,,,,,elpida_pilot,001,2023-09-22_16h27.13.014,Oddball_task,2022.2.5,59.959083921502476,
standard,soundFiles/1000Hz_-3dBFS_3s_44.1kHz.wav',s,1000,,,,,2,0,8,2,,,,,128.0081781000008,128.99241900000197,128.9924057800021,130.99386460000096,s,1,0.6938957999991544,,,,,,,,,,,,elpida_pilot,001,2023-09-22_16h27.13.014,Oddball_task,2022.2.5,59.959083921502476,
standard,soundFiles/1000Hz_-3dBFS_3s_44.1kHz.wav',s,1000,,,,,2,1,9,2,,,,,131.0113065000005,131.9947745999998,131.99525717999896,133.99636850000024,s,1,0.7378731999997399,,,,,,,,,,,,elpida_pilot,001,2023-09-22_16h27.13.014,Oddball_task,2022.2.5,59.959083921502476,
target,soundFiles/1200Hz_-3dBFS_3s_44.1kHz.wav',t,1200,,,,,2,2,10,3,,,,,134.01273960000253,134.99740780000138,134.99757808000177,136.99851019999915,s,0,0.7771499000009499,,,,,,,,,,,,elpida_pilot,001,2023-09-22_16h27.13.014,Oddball_task,2022.2.5,59.959083921502476,
target,soundFiles/1200Hz_-3dBFS_3s_44.1kHz.wav',t,1200,,,,,2,3,11,3,,,,,137.0157786000018,138.00019199999952,138.00022738000226,140.00198530000125,t,1,0.9036969000007957,,,,,,,,,,,,elpida_pilot,001,2023-09-22_16h27.13.014,Oddball_task,2022.2.5,59.959083921502476,
standard,soundFiles/1000Hz_-3dBFS_3s_44.1kHz.wav',s,1000,,,,,3,0,12,1,,,,,140.0181737999992,141.00260270000217,141.00260118000043,143.0038170000007,s,1,1.0999792999973579,,,,,,,,,,,,elpida_pilot,001,2023-09-22_16h27.13.014,Oddball_task,2022.2.5,59.959083921502476,
standard,soundFiles/1000Hz_-3dBFS_3s_44.1kHz.wav',s,1000,,,,,3,1,13,2,,,,,143.02067100000204,143.98799990000043,143.98877978000056,145.99043969999911,s,1,0.846157600000879,,,,,,,,,,,,elpida_pilot,001,2023-09-22_16h27.13.014,Oddball_task,2022.2.5,59.959083921502476,
target,soundFiles/1200Hz_-3dBFS_3s_44.1kHz.wav',t,1200,,,,,3,2,14,3,,,,,146.00608920000013,146.9903703000018,146.99066848000112,148.99218190000101,t,1,0.953213799999503,,,,,,,,,,,,elpida_pilot,001,2023-09-22_16h27.13.014,Oddball_task,2022.2.5,59.959083921502476,
standard,soundFiles/1000Hz_-3dBFS_3s_44.1kHz.wav',s,1000,,,,,3,3,15,2,,,,,149.00941410000087,149.99314040000172,149.99314637999888,151.99390620000122,s,1,0.8695892999967327,,,,,,,,,,,,elpida_pilot,001,2023-09-22_16h27.13.014,Oddball_task,2022.2.5,59.959083921502476,
standard,soundFiles/1000Hz_-3dBFS_3s_44.1kHz.wav',s,1000,,,,,4,0,16,2,,,,,152.01046670000142,152.99527520000265,152.99566187999918,154.99734470000112,s,1,1.0352167999990343,,,,,,,,,,,,elpida_pilot,001,2023-09-22_16h27.13.014,Oddball_task,2022.2.5,59.959083921502476,
target,soundFiles/1200Hz_-3dBFS_3s_44.1kHz.wav',t,1200,,,,,4,1,17,3,,,,,155.01378190000105,155.9980338000023,155.99919488000197,157.9995842999997,t,1,0.791881299999659,,,,,,156.99912300000142,,,,,,elpida_pilot,001,2023-09-22_16h27.13.014,Oddball_task,2022.2.5,59.959083921502476,
standard,soundFiles/1000Hz_-3dBFS_3s_44.1kHz.wav',s,1000,,,,,4,2,18,0,,,,,158.01674080000157,159.00119740000082,159.00116548000042,161.0026609000015,s,1,0.8247415999976511,,,,,,,,,,,,elpida_pilot,001,2023-09-22_16h27.13.014,Oddball_task,2022.2.5,59.959083921502476,
target,soundFiles/1200Hz_-3dBFS_3s_44.1kHz.wav',t,1200,,,,,4,3,19,3,,,,,161.01950190000207,162.00367960000222,162.00374648000107,164.0053607000009,t,1,0.8979553999997734,,,,,,,,,,,,elpida_pilot,001,2023-09-22_16h27.13.014,Oddball_task,2022.2.5,59.959083921502476,
standard,soundFiles/1000Hz_-3dBFS_3s_44.1kHz.wav',s,1000,,,,,5,0,20,2,,,,,164.02254000000175,164.98963430000003,164.9900837800018,166.99142500000016,s,1,0.7966184999968391,,,,,,,,,,,,elpida_pilot,001,2023-09-22_16h27.13.014,Oddball_task,2022.2.5,59.959083921502476,
standard,soundFiles/1000Hz_-3dBFS_3s_44.1kHz.wav',s,1000,,,,,5,1,21,0,,,,,167.0080280000002,167.99258530000225,167.9921945800019,169.9937131000006,s,1,0.7319457000012335,,,,,,,,,,,,elpida_pilot,001,2023-09-22_16h27.13.014,Oddball_task,2022.2.5,59.959083921502476,
standard,soundFiles/1000Hz_-3dBFS_3s_44.1kHz.wav',s,1000,,,,,5,2,22,0,,,,,170.01068149999992,170.99442650000128,170.99476068000186,172.99598350000088,s,1,0.6955195000009553,,,,,,,,,,,,elpida_pilot,001,2023-09-22_16h27.13.014,Oddball_task,2022.2.5,59.959083921502476,
standard,soundFiles/1000Hz_-3dBFS_3s_44.1kHz.wav',s,1000,,,,,5,3,23,0,,,,,173.0126765999994,173.99897550000242,173.99924978000163,,s,1,0.7106472000014037,,,,,,,,,,,,elpida_pilot,001,2023-09-22_16h27.13.014,Oddball_task,2022.2.5,59.959083921502476,
target,soundFiles/1200Hz_-3dBFS_3s_44.1kHz.wav',t,1200,,,,,6,0,24,3,,,,,176.01476040000125,176.99928990000262,176.999964179999,179.00113760000022,t,1,0.7641331000013452,,,,,,,,,,,,elpida_pilot,001,2023-09-22_16h27.13.014,Oddball_task,2022.2.5,59.959083921502476,
standard,soundFiles/1000Hz_-3dBFS_3s_44.1kHz.wav',s,1000,,,,,6,1,25,0,,,,,179.01779979999992,180.0039383000003,180.00409238000103,,s,1,0.8982109999997192,,,,,,,,,,,,elpida_pilot,001,2023-09-22_16h27.13.014,Oddball_task,2022.2.5,59.959083921502476,
standard,soundFiles/1000Hz_-3dBFS_3s_44.1kHz.wav',s,1000,,,,,6,2,26,1,,,,,182.01892320000115,182.9907729000006,182.99107398000015,184.98937970000043,s,1,0.6103553999964788,,,,,,,,,,,,elpida_pilot,001,2023-09-22_16h27.13.014,Oddball_task,2022.2.5,59.959083921502476,
target,soundFiles/1200Hz_-3dBFS_3s_44.1kHz.wav',t,1200,,,,,6,3,27,3,,,,,185.02318490000107,185.99159879999934,185.99140597999977,187.99190590000217,t,1,1.3232896999979857,,,,,,,,,,,,elpida_pilot,001,2023-09-22_16h27.13.014,Oddball_task,2022.2.5,59.959083921502476,
standard,soundFiles/1000Hz_-3dBFS_3s_44.1kHz.wav',s,1000,,,,,7,0,28,2,,,,,188.00857600000018,189.01531109999996,188.9963788800018,,s,1,0.8338535999973828,,,,,,,,,,,,elpida_pilot,001,2023-09-22_16h27.13.014,Oddball_task,2022.2.5,59.959083921502476,
standard,soundFiles/1000Hz_-3dBFS_3s_44.1kHz.wav',s,1000,,,,,7,1,29,1,,,,,191.01086829999986,191.9950200000021,191.9951074800014,193.99672030000147,s,1,0.9847286000003805,,,,,,192.99576770000203,,,,,,elpida_pilot,001,2023-09-22_16h27.13.014,Oddball_task,2022.2.5,59.959083921502476,
target,soundFiles/1200Hz_-3dBFS_3s_44.1kHz.wav',t,1200,,,,,7,2,30,3,,,,,194.01332530000218,194.99920980000024,194.9983573800022,196.99899890000233,t,1,0.8183613999972295,,,,,,195.99768949999998,,,,,,elpida_pilot,001,2023-09-22_16h27.13.014,Oddball_task,2022.2.5,59.959083921502476,
standard,soundFiles/1000Hz_-3dBFS_3s_44.1kHz.wav',s,1000,,,,,7,3,31,1,,,,,197.01719729999968,198.0004544000003,198.00105508000016,200.00238119999995,s,1,0.9958112999993318,,,,,,,,,,,,elpida_pilot,001,2023-09-22_16h27.13.014,Oddball_task,2022.2.5,59.959083921502476,
standard,soundFiles/1000Hz_-3dBFS_3s_44.1kHz.wav',s,1000,,,,,8,0,32,1,,,,,200.01829720000023,201.00318940000216,201.00233898000116,203.00393210000038,s,1,0.9224284000010812,,,,,,,,,,,,elpida_pilot,001,2023-09-22_16h27.13.014,Oddball_task,2022.2.5,59.959083921502476,
standard,soundFiles/1000Hz_-3dBFS_3s_44.1kHz.wav',s,1000,,,,,8,1,33,1,,,,,203.0207728000023,203.9909093999995,203.99090517999903,206.00691899999947,s,1,0.7734524000006786,,,,,,,,,,,,elpida_pilot,001,2023-09-22_16h27.13.014,Oddball_task,2022.2.5,59.959083921502476,
standard,soundFiles/1000Hz_-3dBFS_3s_44.1kHz.wav',s,1000,,,,,8,2,34,1,,,,,206.02312240000174,206.9912480999992,206.9908828800002,208.99364609999975,s,1,0.6931755999976303,,,,,,,,,,,,elpida_pilot,001,2023-09-22_16h27.13.014,Oddball_task,2022.2.5,59.959083921502476,
standard,soundFiles/1000Hz_-3dBFS_3s_44.1kHz.wav',s,1000,,,,,8,3,35,1,,,,,209.00972100000217,209.9933713999999,209.9936403800024,211.99467519999962,s,1,0.9178079999983311,,,,,,,,,,,,elpida_pilot,001,2023-09-22_16h27.13.014,Oddball_task,2022.2.5,59.959083921502476,
standard,soundFiles/1000Hz_-3dBFS_3s_44.1kHz.wav',s,1000,,,,,9,0,36,2,,,,,212.0128681999995,212.99576760000127,212.9964304800018,214.99743800000215,s,1,0.7273339999992459,,,,,,213.99690209999972,,,,,,elpida_pilot,001,2023-09-22_16h27.13.014,Oddball_task,2022.2.5,59.959083921502476,
target,soundFiles/1200Hz_-3dBFS_3s_44.1kHz.wav',t,1200,,,,,9,1,37,3,,,,,215.0142326000023,215.99853590000203,215.9984347800022,217.99998630000118,t,1,0.790683799998078,,,,,,,,,,,,elpida_pilot,001,2023-09-22_16h27.13.014,Oddball_task,2022.2.5,59.959083921502476,
standard,soundFiles/1000Hz_-3dBFS_3s_44.1kHz.wav',s,1000,,,,,9,2,38,0,,,,,218.01709630000187,219.00119180000183,219.00105837999982,221.0026371999993,s,1,0.9028064000012819,,,,,,,,,,,,elpida_pilot,001,2023-09-22_16h27.13.014,Oddball_task,2022.2.5,59.959083921502476,
standard,soundFiles/1000Hz_-3dBFS_3s_44.1kHz.wav',s,1000,,,,,9,3,39,1,,,,,221.0196625000026,222.00327169999946,222.0031809799988,224.00497630000245,s,1,1.2506827999968664,,,,,,,,,,,,elpida_pilot,001,2023-09-22_16h27.13.014,Oddball_task,2022.2.5,59.959083921502476,
,,,,,,,,,,,,,,,,,,,,,,,,,,,,,224.0216318999992,226.99125110000023,227.02500800000053,e,16.626996099999815,elpida_pilot,001,2023-09-22_16h27.13.014,Oddball_task,2022.2.5,59.959083921502476,
