trial,file,corrAns,tone,trials.thisRepN,trials.thisTrialN,trials.thisN,trials.thisIndex,trials_2.thisRepN,trials_2.thisTrialN,trials_2.thisN,trials_2.thisIndex,instructions.started,key_resp_1.started,key_resp_1.keys,key_resp_1.rt,fixation.started,response.started,sound_1.started,response.stopped,response.keys,response.corr,feedback_text.started,response.rt,sound_1.stopped,instructions_2.started,key_resp_2.started,key_resp_2.keys,key_resp_2.rt,fixation.stopped,thank_you.started,thank_you.stopped,exit_exp.started,exit_exp.keys,exit_exp.rt,participant,session,date,expName,psychopyVersion,frameRate,
,,,,,,,,,,,,137.9884450999998,137.9884450999998,space,93.62137510000048,,,,,,,,,,,,,,,,,,,,elpida1310,002,2023-10-13_14h04.45.653,Oddball_task,2022.2.5,59.705663022410945,
standard,soundFiles/1000Hz_-3dBFS_3s_44.1kHz.wav',None,1000,0,0,0,1,,,,,,,,,231.64742279999973,232.63127859999986,232.63294563999997,235.13067739999997,None,1,235.14994320000005,,,,,,,,,,,,,elpida1310,002,2023-10-13_14h04.45.653,Oddball_task,2022.2.5,59.705663022410945,
standard,soundFiles/1000Hz_-3dBFS_3s_44.1kHz.wav',None,1000,0,1,1,0,,,,,,,,,236.14855829999988,237.13078199999973,237.13150203999984,239.6302953999998,None,1,239.64725809999982,,,,,,,,,,,,,elpida1310,002,2023-10-13_14h04.45.653,Oddball_task,2022.2.5,59.705663022410945,
standard,soundFiles/1000Hz_-3dBFS_3s_44.1kHz.wav',None,1000,0,2,2,1,,,,,,,,,240.64815950000002,241.63054379999994,241.63160514,244.1299653000001,None,1,244.14730370000007,,,,,,,,,,,,,elpida1310,002,2023-10-13_14h04.45.653,Oddball_task,2022.2.5,59.705663022410945,
standard,soundFiles/1000Hz_-3dBFS_3s_44.1kHz.wav',None,1000,0,3,3,2,,,,,,,,,245.1473321999997,246.13015790000009,246.13078413999992,248.63040509999973,None,1,248.64875809999967,,,,,,,,,,,,,elpida1310,002,2023-10-13_14h04.45.653,Oddball_task,2022.2.5,59.705663022410945,
standard,soundFiles/1000Hz_-3dBFS_3s_44.1kHz.wav',None,1000,1,0,4,2,,,,,,,,,249.6474576999999,250.62991749999992,250.63047754,253.13039769999978,None,1,253.14779659999977,,,,,,,,,,,,,elpida1310,002,2023-10-13_14h04.45.653,Oddball_task,2022.2.5,59.705663022410945,
target,soundFiles/1200Hz_-3dBFS_3s_44.1kHz.wav',t,1200,1,1,5,3,,,,,,,,,254.1488273,255.13056039999992,255.1309761399999,257.6298345,t,1,257.6474401999999,0.9666589000003114,,,,,,,,,,,,elpida1310,002,2023-10-13_14h04.45.653,Oddball_task,2022.2.5,59.705663022410945,
target,soundFiles/1200Hz_-3dBFS_3s_44.1kHz.wav',t,1200,1,2,6,3,,,,,,,,,258.6473163999999,259.63021449999997,259.63101814000004,262.1298847999997,t,1,262.14742049999995,0.7215762000000723,260.6298615999999,,,,,,,,,,,elpida1310,002,2023-10-13_14h04.45.653,Oddball_task,2022.2.5,59.705663022410945,
standard,soundFiles/1000Hz_-3dBFS_3s_44.1kHz.wav',None,1000,1,3,7,0,,,,,,,,,263.14716580000004,264.1301441999999,264.13059734,266.6297811999998,None,1,266.64679380000007,,,,,,,,,,,,,elpida1310,002,2023-10-13_14h04.45.653,Oddball_task,2022.2.5,59.705663022410945,
,,,,,,,,,,,,,,,,,,,,,,,,,267.64724149999984,267.64724149999984,space,1.5347921000002316,,,,,,,elpida1310,002,2023-10-13_14h04.45.653,Oddball_task,2022.2.5,59.705663022410945,
target,soundFiles/1200Hz_-3dBFS_3s_44.1kHz.wav',t,1200,,,,,0,0,0,3,,,,,269.2286205999999,270.19626289999997,270.1969689399999,272.69577739999977,t,1,,0.9744104000001244,,,,,,,,,,,,elpida1310,002,2023-10-13_14h04.45.653,Oddball_task,2022.2.5,59.705663022410945,
target,soundFiles/1200Hz_-3dBFS_3s_44.1kHz.wav',t,1200,,,,,0,1,1,3,,,,,272.7293335999998,273.695745,273.6963082399999,276.1959492000001,t,1,,0.8324685000002319,,,,,,,,,,,,elpida1310,002,2023-10-13_14h04.45.653,Oddball_task,2022.2.5,59.705663022410945,
standard,soundFiles/1000Hz_-3dBFS_3s_44.1kHz.wav',None,1000,,,,,0,2,2,0,,,,,276.22866799999974,277.1962894999997,277.19725003999986,279.69538139999986,None,1,,,278.19564089999994,,,,,,,,,,,elpida1310,002,2023-10-13_14h04.45.653,Oddball_task,2022.2.5,59.705663022410945,
standard,soundFiles/1000Hz_-3dBFS_3s_44.1kHz.wav',None,1000,,,,,0,3,3,2,,,,,279.7287053,280.6958211000001,280.69696553999995,283.19572879999987,None,1,,,,,,,,,,,,,,elpida1310,002,2023-10-13_14h04.45.653,Oddball_task,2022.2.5,59.705663022410945,
standard,soundFiles/1000Hz_-3dBFS_3s_44.1kHz.wav',None,1000,,,,,1,0,4,2,,,,,283.2283192,284.1952016,284.1966349400001,286.69515139999976,None,1,,,,,,,,,,,,,,elpida1310,002,2023-10-13_14h04.45.653,Oddball_task,2022.2.5,59.705663022410945,
standard,soundFiles/1000Hz_-3dBFS_3s_44.1kHz.wav',None,1000,,,,,1,1,5,0,,,,,286.7281304999997,287.7117628000001,287.7115726399999,290.2118720999997,None,1,,,,,,,,,,,,,,elpida1310,002,2023-10-13_14h04.45.653,Oddball_task,2022.2.5,59.705663022410945,
standard,soundFiles/1000Hz_-3dBFS_3s_44.1kHz.wav',None,1000,,,,,1,2,6,1,,,,,290.22826799999984,291.2122752,291.2112530400001,,None,1,,,292.2107855999998,,,,,,,,,,,elpida1310,002,2023-10-13_14h04.45.653,Oddball_task,2022.2.5,59.705663022410945,
standard,soundFiles/1000Hz_-3dBFS_3s_44.1kHz.wav',None,1000,,,,,1,3,7,0,,,,,293.7283401999998,294.71171079999976,294.71143443999983,297.2114886999998,None,1,,,,,,,,,,,,,,elpida1310,002,2023-10-13_14h04.45.653,Oddball_task,2022.2.5,59.705663022410945,
standard,soundFiles/1000Hz_-3dBFS_3s_44.1kHz.wav',None,1000,,,,,2,0,8,2,,,,,297.227077,298.2104003999998,298.2105126399998,300.71128550000003,None,1,,,,,,,,,,,,,,elpida1310,002,2023-10-13_14h04.45.653,Oddball_task,2022.2.5,59.705663022410945,
standard,soundFiles/1000Hz_-3dBFS_3s_44.1kHz.wav',None,1000,,,,,2,1,9,0,,,,,300.7273043,301.7116464999999,301.7105975400001,,None,1,,,,,,,,,,,,,,elpida1310,002,2023-10-13_14h04.45.653,Oddball_task,2022.2.5,59.705663022410945,
standard,soundFiles/1000Hz_-3dBFS_3s_44.1kHz.wav',None,1000,,,,,2,2,10,1,,,,,304.2271786000001,305.2114981999998,305.2107771399998,,None,1,,,,,,,,,,,,,,elpida1310,002,2023-10-13_14h04.45.653,Oddball_task,2022.2.5,59.705663022410945,
standard,soundFiles/1000Hz_-3dBFS_3s_44.1kHz.wav',None,1000,,,,,2,3,11,1,,,,,307.72663379999995,308.71160759999975,308.7102146399999,,None,1,,,,,,,,,,,,,,elpida1310,002,2023-10-13_14h04.45.653,Oddball_task,2022.2.5,59.705663022410945,
standard,soundFiles/1000Hz_-3dBFS_3s_44.1kHz.wav',None,1000,,,,,3,0,12,1,,,,,311.2263683000001,312.2098940000001,312.20986203999985,314.7102964999999,None,1,,,,,,,,,,,,,,elpida1310,002,2023-10-13_14h04.45.653,Oddball_task,2022.2.5,59.705663022410945,
standard,soundFiles/1000Hz_-3dBFS_3s_44.1kHz.wav',None,1000,,,,,3,1,13,0,,,,,314.7264117999998,315.7102639999998,315.70954644000005,318.2101628999999,None,1,,,,,,,,,,,,,,elpida1310,002,2023-10-13_14h04.45.653,Oddball_task,2022.2.5,59.705663022410945,
standard,soundFiles/1000Hz_-3dBFS_3s_44.1kHz.wav',None,1000,,,,,3,2,14,0,,,,,318.2263312,319.21038339999996,319.2097872400001,321.7107390000001,None,1,,,320.21093759999985,,,,,,,,,,,elpida1310,002,2023-10-13_14h04.45.653,Oddball_task,2022.2.5,59.705663022410945,
standard,soundFiles/1000Hz_-3dBFS_3s_44.1kHz.wav',None,1000,,,,,3,3,15,2,,,,,321.7266133999997,322.7111682,322.70981903999984,,None,1,,,,,,,,,,,,,,elpida1310,002,2023-10-13_14h04.45.653,Oddball_task,2022.2.5,59.705663022410945,
standard,soundFiles/1000Hz_-3dBFS_3s_44.1kHz.wav',None,1000,,,,,4,0,16,0,,,,,325.2265714,326.21001769999975,326.2095349399998,,None,1,,,327.2096413999998,,,,,,,,,,,elpida1310,002,2023-10-13_14h04.45.653,Oddball_task,2022.2.5,59.705663022410945,
standard,soundFiles/1000Hz_-3dBFS_3s_44.1kHz.wav',None,1000,,,,,4,1,17,0,,,,,328.7257156999999,329.70918389999997,329.70884234000016,332.20951909999985,None,1,,,,,,,,,,,,,,elpida1310,002,2023-10-13_14h04.45.653,Oddball_task,2022.2.5,59.705663022410945,
standard,soundFiles/1000Hz_-3dBFS_3s_44.1kHz.wav',None,1000,,,,,4,2,18,2,,,,,332.2257153999999,333.2089911999997,333.20859373999986,335.70907940000006,None,1,,,,,,,,,,,,,,elpida1310,002,2023-10-13_14h04.45.653,Oddball_task,2022.2.5,59.705663022410945,
standard,soundFiles/1000Hz_-3dBFS_3s_44.1kHz.wav',None,1000,,,,,4,3,19,2,,,,,335.72554979999995,336.7087434,336.70881273999987,339.2095839999997,None,1,,,,,,,,,,,,,,elpida1310,002,2023-10-13_14h04.45.653,Oddball_task,2022.2.5,59.705663022410945,
standard,soundFiles/1000Hz_-3dBFS_3s_44.1kHz.wav',None,1000,,,,,5,0,20,0,,,,,339.2257317999997,340.2089643999998,340.20832473999974,342.70827169999984,None,1,,,,,,,,,,,,,,elpida1310,002,2023-10-13_14h04.45.653,Oddball_task,2022.2.5,59.705663022410945,
target,soundFiles/1200Hz_-3dBFS_3s_44.1kHz.wav',t,1200,,,,,5,1,21,3,,,,,342.724608,343.7086922999997,343.7084211399998,346.2082737999999,t,1,,0.8088596000002326,,,,,,,,,,,,elpida1310,002,2023-10-13_14h04.45.653,Oddball_task,2022.2.5,59.705663022410945,
target,soundFiles/1200Hz_-3dBFS_3s_44.1kHz.wav',t,1200,,,,,5,2,22,3,,,,,346.22464549999995,347.20753079999986,347.20730344000015,349.7079794000001,t,1,,0.9175605000004907,348.2085199999997,,,,,,,,,,,elpida1310,002,2023-10-13_14h04.45.653,Oddball_task,2022.2.5,59.705663022410945,
standard,soundFiles/1000Hz_-3dBFS_3s_44.1kHz.wav',None,1000,,,,,5,3,23,1,,,,,349.72394459999987,350.70722669999986,350.70684914000014,353.2083600000001,None,1,,,,,,,,,,,,,,elpida1310,002,2023-10-13_14h04.45.653,Oddball_task,2022.2.5,59.705663022410945,
standard,soundFiles/1000Hz_-3dBFS_3s_44.1kHz.wav',None,1000,,,,,6,0,24,0,,,,,353.22352679999995,354.20802909999975,354.20691434,356.70750150000003,None,1,,,,,,,,,,,,,,elpida1310,002,2023-10-13_14h04.45.653,Oddball_task,2022.2.5,59.705663022410945,
target,soundFiles/1200Hz_-3dBFS_3s_44.1kHz.wav',t,1200,,,,,6,1,25,3,,,,,356.7236935000001,357.7071406,357.70668553999997,360.2080606999998,t,1,,0.7578383000000031,,,,,,,,,,,,elpida1310,002,2023-10-13_14h04.45.653,Oddball_task,2022.2.5,59.705663022410945,
target,soundFiles/1200Hz_-3dBFS_3s_44.1kHz.wav',t,1200,,,,,6,2,26,3,,,,,360.22392850000006,361.2083497999997,361.2070327399998,,t,1,,0.9928191000003608,,,,,,,,,,,,elpida1310,002,2023-10-13_14h04.45.653,Oddball_task,2022.2.5,59.705663022410945,
standard,soundFiles/1000Hz_-3dBFS_3s_44.1kHz.wav',None,1000,,,,,6,3,27,2,,,,,363.72367209999993,364.7072266,364.7069285399999,,None,1,,,,,,,,,,,,,,elpida1310,002,2023-10-13_14h04.45.653,Oddball_task,2022.2.5,59.705663022410945,
target,soundFiles/1200Hz_-3dBFS_3s_44.1kHz.wav',t,1200,,,,,7,0,28,3,,,,,367.22272269999985,368.2073448000001,368.2067221399999,,t,1,,0.9118703000003734,369.2068359,,,,,,,,,,,elpida1310,002,2023-10-13_14h04.45.653,Oddball_task,2022.2.5,59.705663022410945,
standard,soundFiles/1000Hz_-3dBFS_3s_44.1kHz.wav',None,1000,,,,,7,1,29,0,,,,,370.72264479999967,371.7067311999999,371.7053869399998,,None,1,,,,,,,,,,,,,,elpida1310,002,2023-10-13_14h04.45.653,Oddball_task,2022.2.5,59.705663022410945,
target,soundFiles/1200Hz_-3dBFS_3s_44.1kHz.wav',t,1200,,,,,7,2,30,3,,,,,374.2226931,375.20725719999973,375.20604744000013,,t,1,,0.6962010000006558,,,,,,,,,,,,elpida1310,002,2023-10-13_14h04.45.653,Oddball_task,2022.2.5,59.705663022410945,
standard,soundFiles/1000Hz_-3dBFS_3s_44.1kHz.wav',None,1000,,,,,7,3,31,0,,,,,377.7218141999997,378.7058164,378.70496904000004,381.20667879999974,None,1,,,,,,,,,,,,,,elpida1310,002,2023-10-13_14h04.45.653,Oddball_task,2022.2.5,59.705663022410945,
target,soundFiles/1200Hz_-3dBFS_3s_44.1kHz.wav',t,1200,,,,,8,0,32,3,,,,,381.2228455999998,382.2065693999998,382.2065097400001,384.70600149999973,t,1,,0.8094915000001492,,,,,,,,,,,,elpida1310,002,2023-10-13_14h04.45.653,Oddball_task,2022.2.5,59.705663022410945,
target,soundFiles/1200Hz_-3dBFS_3s_44.1kHz.wav',t,1200,,,,,8,1,33,3,,,,,384.7223006999998,385.7057646999997,385.70478663999995,388.2059466999999,t,1,,0.8815447000001768,,,,,,,,,,,,elpida1310,002,2023-10-13_14h04.45.653,Oddball_task,2022.2.5,59.705663022410945,
standard,soundFiles/1000Hz_-3dBFS_3s_44.1kHz.wav',None,1000,,,,,8,2,34,2,,,,,388.22179289999985,389.2060154999999,389.20572404000006,,None,1,,,390.20618149999973,,,,,,,,,,,elpida1310,002,2023-10-13_14h04.45.653,Oddball_task,2022.2.5,59.705663022410945,
standard,soundFiles/1000Hz_-3dBFS_3s_44.1kHz.wav',None,1000,,,,,8,3,35,1,,,,,391.72211819999984,392.7049606999999,392.70433934000005,395.2044443,None,1,,,,,,,,,,,,,,elpida1310,002,2023-10-13_14h04.45.653,Oddball_task,2022.2.5,59.705663022410945,
target,soundFiles/1200Hz_-3dBFS_3s_44.1kHz.wav',t,1200,,,,,9,0,36,3,,,,,395.2210777,396.2050214000001,396.20417243999975,398.70433839999987,t,1,,0.7812239000004411,,,,,,,,,,,,elpida1310,002,2023-10-13_14h04.45.653,Oddball_task,2022.2.5,59.705663022410945,
target,soundFiles/1200Hz_-3dBFS_3s_44.1kHz.wav',t,1200,,,,,9,1,37,3,,,,,398.7204896999997,399.70420209999975,399.7037263399999,402.20471169999973,t,1,,0.8503818000003776,,,,,,,,,,,,elpida1310,002,2023-10-13_14h04.45.653,Oddball_task,2022.2.5,59.705663022410945,
standard,soundFiles/1000Hz_-3dBFS_3s_44.1kHz.wav',None,1000,,,,,9,2,38,0,,,,,402.2208078999997,403.20401730000003,403.20399483999984,405.70462869999983,None,1,,,,,,,,,,,,,,elpida1310,002,2023-10-13_14h04.45.653,Oddball_task,2022.2.5,59.705663022410945,
standard,soundFiles/1000Hz_-3dBFS_3s_44.1kHz.wav',None,1000,,,,,9,3,39,1,,,,,405.72034829999984,406.7044060999997,406.70386513999995,409.20482089999996,None,1,,,,,,,,,,,,,,elpida1310,002,2023-10-13_14h04.45.653,Oddball_task,2022.2.5,59.705663022410945,
standard,soundFiles/1000Hz_-3dBFS_3s_44.1kHz.wav',None,1000,,,,,10,0,40,1,,,,,409.2200032999999,410.2036438,410.2031200399998,412.7040987999999,None,1,,,,,,,,,,,,,,elpida1310,002,2023-10-13_14h04.45.653,Oddball_task,2022.2.5,59.705663022410945,
target,soundFiles/1200Hz_-3dBFS_3s_44.1kHz.wav',t,1200,,,,,10,1,41,3,,,,,412.7199181000001,413.70382960000006,413.70343763999983,416.20357250000006,t,1,,0.7094395000003715,,,,,,,,,,,,elpida1310,002,2023-10-13_14h04.45.653,Oddball_task,2022.2.5,59.705663022410945,
standard,soundFiles/1000Hz_-3dBFS_3s_44.1kHz.wav',None,1000,,,,,10,2,42,2,,,,,416.2195544000001,417.20311790000005,417.2026393399998,419.7030686999997,None,1,,,,,,,,,,,,,,elpida1310,002,2023-10-13_14h04.45.653,Oddball_task,2022.2.5,59.705663022410945,
standard,soundFiles/1000Hz_-3dBFS_3s_44.1kHz.wav',None,1000,,,,,10,3,43,2,,,,,419.71918830000004,420.70287259999986,420.70292963999975,423.2027576999999,None,1,,,,,,,,,,,,,,elpida1310,002,2023-10-13_14h04.45.653,Oddball_task,2022.2.5,59.705663022410945,
standard,soundFiles/1000Hz_-3dBFS_3s_44.1kHz.wav',None,1000,,,,,11,0,44,0,,,,,423.21929009999985,424.20337659999996,424.20267024,426.7035476000001,None,1,,,,,,,,,,,,,,elpida1310,002,2023-10-13_14h04.45.653,Oddball_task,2022.2.5,59.705663022410945,
target,soundFiles/1200Hz_-3dBFS_3s_44.1kHz.wav',t,1200,,,,,11,1,45,3,,,,,426.7192424,427.70226079999975,427.70211273999996,430.2023979999999,t,1,,0.8850093000005472,,,,,,,,,,,,elpida1310,002,2023-10-13_14h04.45.653,Oddball_task,2022.2.5,59.705663022410945,
standard,soundFiles/1000Hz_-3dBFS_3s_44.1kHz.wav',None,1000,,,,,11,2,46,1,,,,,430.2185307,431.20215989999997,431.20200664000015,433.70323370000006,None,1,,,,,,,,,,,,,,elpida1310,002,2023-10-13_14h04.45.653,Oddball_task,2022.2.5,59.705663022410945,
standard,soundFiles/1000Hz_-3dBFS_3s_44.1kHz.wav',None,1000,,,,,11,3,47,0,,,,,433.7191118999999,434.70287199999984,434.70212224,,None,1,,,,,,,,,,,,,,elpida1310,002,2023-10-13_14h04.45.653,Oddball_task,2022.2.5,59.705663022410945,
standard,soundFiles/1000Hz_-3dBFS_3s_44.1kHz.wav',None,1000,,,,,12,0,48,1,,,,,437.2179934999999,438.2020308000001,438.2013284400001,440.70283130000007,None,1,,,,,,,,,,,,,,elpida1310,002,2023-10-13_14h04.45.653,Oddball_task,2022.2.5,59.705663022410945,
target,soundFiles/1200Hz_-3dBFS_3s_44.1kHz.wav',t,1200,,,,,12,1,49,3,,,,,440.71898899999997,441.7027831999999,441.7032545399999,444.2021792999999,t,1,,0.701034200000322,,,,,,,,,,,,elpida1310,002,2023-10-13_14h04.45.653,Oddball_task,2022.2.5,59.705663022410945,
standard,soundFiles/1000Hz_-3dBFS_3s_44.1kHz.wav',None,1000,,,,,12,2,50,1,,,,,444.21986949999973,445.2027152999999,445.20157103999975,447.7021451999999,None,1,,,,,,,,,,,,,,elpida1310,002,2023-10-13_14h04.45.653,Oddball_task,2022.2.5,59.705663022410945,
standard,soundFiles/1000Hz_-3dBFS_3s_44.1kHz.wav',None,1000,,,,,12,3,51,0,,,,,447.7187501999997,448.70186220000005,448.70176314,451.2021368999999,None,1,,,449.70215199999984,,,,,,,,,,,elpida1310,002,2023-10-13_14h04.45.653,Oddball_task,2022.2.5,59.705663022410945,
standard,soundFiles/1000Hz_-3dBFS_3s_44.1kHz.wav',None,1000,,,,,13,0,52,1,,,,,451.2178816999999,452.2020838999997,452.20194393999975,,None,1,,,,,,,,,,,,,,elpida1310,002,2023-10-13_14h04.45.653,Oddball_task,2022.2.5,59.705663022410945,
standard,soundFiles/1000Hz_-3dBFS_3s_44.1kHz.wav',None,1000,,,,,13,1,53,1,,,,,454.7171521,455.7012015999999,455.7004531399999,458.2008409,None,1,,,,,,,,,,,,,,elpida1310,002,2023-10-13_14h04.45.653,Oddball_task,2022.2.5,59.705663022410945,
target,soundFiles/1200Hz_-3dBFS_3s_44.1kHz.wav',t,1200,,,,,13,2,54,3,,,,,458.2167565999998,459.20158029999993,459.20078093999985,,t,1,,0.9916150000003654,,,,,,,,,,,,elpida1310,002,2023-10-13_14h04.45.653,Oddball_task,2022.2.5,59.705663022410945,
target,soundFiles/1200Hz_-3dBFS_3s_44.1kHz.wav',t,1200,,,,,13,3,55,3,,,,,461.71688189999986,462.70028189999994,462.70085003999986,465.20047539999996,t,1,,1.0342356000005566,,,,,,,,,,,,elpida1310,002,2023-10-13_14h04.45.653,Oddball_task,2022.2.5,59.705663022410945,
standard,soundFiles/1000Hz_-3dBFS_3s_44.1kHz.wav',None,1000,,,,,14,0,56,1,,,,,465.21686169999975,466.2003139999997,466.1995393399999,468.7002315,None,1,,,,,,,,,,,,,,elpida1310,002,2023-10-13_14h04.45.653,Oddball_task,2022.2.5,59.705663022410945,
standard,soundFiles/1000Hz_-3dBFS_3s_44.1kHz.wav',None,1000,,,,,14,1,57,2,,,,,468.7160409999997,469.7000020999999,469.6997064399999,472.20007529999975,None,1,,,,,,,,,,,,,,elpida1310,002,2023-10-13_14h04.45.653,Oddball_task,2022.2.5,59.705663022410945,
target,soundFiles/1200Hz_-3dBFS_3s_44.1kHz.wav',t,1200,,,,,14,2,58,3,,,,,472.2165915999999,473.2004724999997,473.1996809399999,475.7002634999999,t,1,,1.2170457000001988,,,,,,,,,,,,elpida1310,002,2023-10-13_14h04.45.653,Oddball_task,2022.2.5,59.705663022410945,
standard,soundFiles/1000Hz_-3dBFS_3s_44.1kHz.wav',None,1000,,,,,14,3,59,1,,,,,475.7164952999997,476.6992471999997,476.69938014,479.19998039999973,None,1,,,,,,,,,,,,,,elpida1310,002,2023-10-13_14h04.45.653,Oddball_task,2022.2.5,59.705663022410945,
standard,soundFiles/1000Hz_-3dBFS_3s_44.1kHz.wav',None,1000,,,,,15,0,60,0,,,,,479.2157119999997,480.19965950000005,480.2027001399998,482.70072549999986,None,1,,,,,,,,,,,,,,elpida1310,002,2023-10-13_14h04.45.653,Oddball_task,2022.2.5,59.705663022410945,
standard,soundFiles/1000Hz_-3dBFS_3s_44.1kHz.wav',None,1000,,,,,15,1,61,2,,,,,482.7158191999997,483.7002972,483.6992742399999,,None,1,,,484.7002048999998,,,,,,,,,,,elpida1310,002,2023-10-13_14h04.45.653,Oddball_task,2022.2.5,59.705663022410945,
standard,soundFiles/1000Hz_-3dBFS_3s_44.1kHz.wav',None,1000,,,,,15,2,62,2,,,,,486.21538329999976,487.1995870999999,487.2002348399998,489.69945370000005,None,1,,,,,,,,,,,,,,elpida1310,002,2023-10-13_14h04.45.653,Oddball_task,2022.2.5,59.705663022410945,
standard,soundFiles/1000Hz_-3dBFS_3s_44.1kHz.wav',None,1000,,,,,15,3,63,1,,,,,489.7157143999998,490.6985878999999,490.69832624000003,493.1987700999998,None,1,,,,,,,,,,,,,,elpida1310,002,2023-10-13_14h04.45.653,Oddball_task,2022.2.5,59.705663022410945,
target,soundFiles/1200Hz_-3dBFS_3s_44.1kHz.wav',t,1200,,,,,16,0,64,3,,,,,493.2148354000001,494.19939769999974,494.1988747399997,,t,1,,0.9572605000003023,,,,,,,,,,,,elpida1310,002,2023-10-13_14h04.45.653,Oddball_task,2022.2.5,59.705663022410945,
standard,soundFiles/1000Hz_-3dBFS_3s_44.1kHz.wav',None,1000,,,,,16,1,65,2,,,,,496.7152765999999,497.6983987999997,497.6980776399997,500.1997981999998,None,1,,,,,,,,,,,,,,elpida1310,002,2023-10-13_14h04.45.653,Oddball_task,2022.2.5,59.705663022410945,
standard,soundFiles/1000Hz_-3dBFS_3s_44.1kHz.wav',None,1000,,,,,16,2,66,1,,,,,500.2150898,501.19928009999967,501.19841224000004,503.6990406,None,1,,,,,,,,,,,,,,elpida1310,002,2023-10-13_14h04.45.653,Oddball_task,2022.2.5,59.705663022410945,
standard,soundFiles/1000Hz_-3dBFS_3s_44.1kHz.wav',None,1000,,,,,16,3,67,0,,,,,503.71510480000006,504.6989835999998,504.69889564000016,,None,1,,,,,,,,,,,,,,elpida1310,002,2023-10-13_14h04.45.653,Oddball_task,2022.2.5,59.705663022410945,
standard,soundFiles/1000Hz_-3dBFS_3s_44.1kHz.wav',None,1000,,,,,17,0,68,2,,,,,507.2150827999999,508.19846129999996,508.1981777399998,510.69778159999987,None,1,,,,,,,,,,,,,,elpida1310,002,2023-10-13_14h04.45.653,Oddball_task,2022.2.5,59.705663022410945,
standard,soundFiles/1000Hz_-3dBFS_3s_44.1kHz.wav',None,1000,,,,,17,1,69,0,,,,,510.7141437999999,511.6976560999997,511.69692364000014,514.1981766999997,None,1,,,,,,,,,,,,,,elpida1310,002,2023-10-13_14h04.45.653,Oddball_task,2022.2.5,59.705663022410945,
target,soundFiles/1200Hz_-3dBFS_3s_44.1kHz.wav',t,1200,,,,,17,2,70,3,,,,,514.214078,515.1983798000001,515.1973754399997,,t,1,,0.7272671000005175,,,,,,,,,,,,elpida1310,002,2023-10-13_14h04.45.653,Oddball_task,2022.2.5,59.705663022410945,
standard,soundFiles/1000Hz_-3dBFS_3s_44.1kHz.wav',None,1000,,,,,17,3,71,2,,,,,517.7145769999997,518.6974462999997,518.6972031399997,521.1975327999999,None,1,,,,,,,,,,,,,,elpida1310,002,2023-10-13_14h04.45.653,Oddball_task,2022.2.5,59.705663022410945,
standard,soundFiles/1000Hz_-3dBFS_3s_44.1kHz.wav',None,1000,,,,,18,0,72,2,,,,,521.2132978,522.1975035999999,522.1973011400001,524.6969282,None,1,,,,,,,,524.7130729,,,,,,elpida1310,002,2023-10-13_14h04.45.653,Oddball_task,2022.2.5,59.705663022410945,
target,soundFiles/1200Hz_-3dBFS_3s_44.1kHz.wav',t,1200,,,,,18,1,73,3,,,,,524.7130729,525.7127152999997,525.7135438399997,528.2129084999997,t,1,,0.7044242000001759,,,,,,528.2129084999997,,,,,,elpida1310,002,2023-10-13_14h04.45.653,Oddball_task,2022.2.5,59.705663022410945,
standard,soundFiles/1000Hz_-3dBFS_3s_44.1kHz.wav',None,1000,,,,,18,2,74,0,,,,,528.2129084999997,529.2122630999997,529.2129092400002,531.7128561,None,1,,,,,,,,531.7128561,,,,,,elpida1310,002,2023-10-13_14h04.45.653,Oddball_task,2022.2.5,59.705663022410945,
standard,soundFiles/1000Hz_-3dBFS_3s_44.1kHz.wav',None,1000,,,,,18,3,75,0,,,,,531.7128561,532.7122568,532.71347024,535.2122297000001,None,1,,,,,,,,535.2122297000001,,,,,,elpida1310,002,2023-10-13_14h04.45.653,Oddball_task,2022.2.5,59.705663022410945,
target,soundFiles/1200Hz_-3dBFS_3s_44.1kHz.wav',t,1200,,,,,19,0,76,3,,,,,535.2122297000001,536.2122116999999,536.2125423399999,538.7120723999997,t,1,,0.8435922000003302,537.2129842999998,,,,,538.7120723999997,,,,,,elpida1310,002,2023-10-13_14h04.45.653,Oddball_task,2022.2.5,59.705663022410945,
standard,soundFiles/1000Hz_-3dBFS_3s_44.1kHz.wav',None,1000,,,,,19,1,77,2,,,,,538.7120723999997,539.7116714999997,539.71227814,542.2119955999997,None,1,,,,,,,,542.2119955999997,,,,,,elpida1310,002,2023-10-13_14h04.45.653,Oddball_task,2022.2.5,59.705663022410945,
target,soundFiles/1200Hz_-3dBFS_3s_44.1kHz.wav',t,1200,,,,,19,2,78,3,,,,,542.2119955999997,543.2120289,543.2120541400001,545.7122525999998,t,1,,0.9142080000001442,,,,,,545.7122525999998,,,,,,elpida1310,002,2023-10-13_14h04.45.653,Oddball_task,2022.2.5,59.705663022410945,
target,soundFiles/1200Hz_-3dBFS_3s_44.1kHz.wav',t,1200,,,,,19,3,79,3,,,,,545.7122525999998,546.7117147999998,546.71213034,549.2119929999999,t,1,,0.9250326000005771,,,,,,549.2119929999999,,,,,,elpida1310,002,2023-10-13_14h04.45.653,Oddball_task,2022.2.5,59.705663022410945,
standard,soundFiles/1000Hz_-3dBFS_3s_44.1kHz.wav',None,1000,,,,,20,0,80,2,,,,,549.2119929999999,550.2111642,550.2116409399997,552.7109686999997,None,1,,,,,,,,552.7109686999997,,,,,,elpida1310,002,2023-10-13_14h04.45.653,Oddball_task,2022.2.5,59.705663022410945,
target,soundFiles/1200Hz_-3dBFS_3s_44.1kHz.wav',t,1200,,,,,20,1,81,3,,,,,552.7109686999997,553.7110262000001,553.7118847399998,556.2112778999999,t,1,,0.6811810000003788,,,,,,556.2112778999999,,,,,,elpida1310,002,2023-10-13_14h04.45.653,Oddball_task,2022.2.5,59.705663022410945,
standard,soundFiles/1000Hz_-3dBFS_3s_44.1kHz.wav',None,1000,,,,,20,2,82,0,,,,,556.2112778999999,557.2111424999998,557.2114953399997,559.7115025999997,None,1,,,558.2112524999998,,,,,559.7115025999997,,,,,,elpida1310,002,2023-10-13_14h04.45.653,Oddball_task,2022.2.5,59.705663022410945,
standard,soundFiles/1000Hz_-3dBFS_3s_44.1kHz.wav',None,1000,,,,,20,3,83,0,,,,,559.7115025999997,560.7115473999997,560.7122561399998,563.2116811000001,None,1,,,,,,,,563.2116811000001,,,,,,elpida1310,002,2023-10-13_14h04.45.653,Oddball_task,2022.2.5,59.705663022410945,
standard,soundFiles/1000Hz_-3dBFS_3s_44.1kHz.wav',None,1000,,,,,21,0,84,0,,,,,563.2116811000001,564.2119075999999,564.21104914,566.7264620000001,None,1,,,,,,,,566.7264620000001,,,,,,elpida1310,002,2023-10-13_14h04.45.653,Oddball_task,2022.2.5,59.705663022410945,
standard,soundFiles/1000Hz_-3dBFS_3s_44.1kHz.wav',None,1000,,,,,21,1,85,2,,,,,566.7264620000001,567.7107140999997,567.71026344,570.2118987999997,None,1,,,,,,,,,,,,,,elpida1310,002,2023-10-13_14h04.45.653,Oddball_task,2022.2.5,59.705663022410945,
standard,soundFiles/1000Hz_-3dBFS_3s_44.1kHz.wav',None,1000,,,,,21,2,86,0,,,,,570.2276112999998,571.2110055999997,571.2105370400001,573.7099697999997,None,1,,,,,,,,,,,,,,elpida1310,002,2023-10-13_14h04.45.653,Oddball_task,2022.2.5,59.705663022410945,
target,soundFiles/1200Hz_-3dBFS_3s_44.1kHz.wav',t,1200,,,,,21,3,87,3,,,,,573.7265440000001,574.7109200999998,574.71006314,577.2111931,t,1,,0.7826677000002746,,,,,,,,,,,,elpida1310,002,2023-10-13_14h04.45.653,Oddball_task,2022.2.5,59.705663022410945,
target,soundFiles/1200Hz_-3dBFS_3s_44.1kHz.wav',t,1200,,,,,22,0,88,3,,,,,577.2267889,578.2097037999997,578.2094741399998,580.7103254999997,t,1,,1.0602863000003708,,,,,,,,,,,,elpida1310,002,2023-10-13_14h04.45.653,Oddball_task,2022.2.5,59.705663022410945,
standard,soundFiles/1000Hz_-3dBFS_3s_44.1kHz.wav',None,1000,,,,,22,1,89,1,,,,,580.7259971999997,581.7097544999997,581.7093963399999,584.2105932,None,1,,,,,,,,,,,,,,elpida1310,002,2023-10-13_14h04.45.653,Oddball_task,2022.2.5,59.705663022410945,
standard,soundFiles/1000Hz_-3dBFS_3s_44.1kHz.wav',None,1000,,,,,22,2,90,2,,,,,584.2263158000001,585.2092905,585.2089749399998,587.7102882999998,None,1,,,,,,,,,,,,,,elpida1310,002,2023-10-13_14h04.45.653,Oddball_task,2022.2.5,59.705663022410945,
target,soundFiles/1200Hz_-3dBFS_3s_44.1kHz.wav',t,1200,,,,,22,3,91,3,,,,,587.7262984999998,588.7094795999997,588.70897394,591.2096785999997,t,1,,0.912134000000151,,,,,,,,,,,,elpida1310,002,2023-10-13_14h04.45.653,Oddball_task,2022.2.5,59.705663022410945,
standard,soundFiles/1000Hz_-3dBFS_3s_44.1kHz.wav',None,1000,,,,,23,0,92,0,,,,,591.2257688,592.2095476,592.20904914,594.7087160000001,None,1,,,,,,,,,,,,,,elpida1310,002,2023-10-13_14h04.45.653,Oddball_task,2022.2.5,59.705663022410945,
standard,soundFiles/1000Hz_-3dBFS_3s_44.1kHz.wav',None,1000,,,,,23,1,93,1,,,,,594.7248519999998,595.7090266999999,595.70830554,598.209339,None,1,,,,,,,,,,,,,,elpida1310,002,2023-10-13_14h04.45.653,Oddball_task,2022.2.5,59.705663022410945,
standard,soundFiles/1000Hz_-3dBFS_3s_44.1kHz.wav',None,1000,,,,,23,2,94,0,,,,,598.2254770999998,599.2089953,599.20860964,601.7090782999999,None,1,,,,,,,,,,,,,,elpida1310,002,2023-10-13_14h04.45.653,Oddball_task,2022.2.5,59.705663022410945,
standard,soundFiles/1000Hz_-3dBFS_3s_44.1kHz.wav',None,1000,,,,,23,3,95,0,,,,,601.7254929999999,602.7087038,602.7079124399999,605.2082780000001,None,1,,,,,,,,,,,,,,elpida1310,002,2023-10-13_14h04.45.653,Oddball_task,2022.2.5,59.705663022410945,
standard,soundFiles/1000Hz_-3dBFS_3s_44.1kHz.wav',None,1000,,,,,24,0,96,1,,,,,605.2242526,606.2084500000001,606.2078102399997,608.7086586999999,None,1,,,607.2092158,,,,,,,,,,,elpida1310,002,2023-10-13_14h04.45.653,Oddball_task,2022.2.5,59.705663022410945,
target,soundFiles/1200Hz_-3dBFS_3s_44.1kHz.wav',t,1200,,,,,24,1,97,3,,,,,608.7246603999997,609.7086006,609.7083244399997,,t,1,,0.7307684000002155,,,,,,,,,,,,elpida1310,002,2023-10-13_14h04.45.653,Oddball_task,2022.2.5,59.705663022410945,
standard,soundFiles/1000Hz_-3dBFS_3s_44.1kHz.wav',None,1000,,,,,24,2,98,2,,,,,612.2238072,613.2081241999999,613.2071989399998,615.7087622999998,None,1,,,,,,,,,,,,,,elpida1310,002,2023-10-13_14h04.45.653,Oddball_task,2022.2.5,59.705663022410945,
standard,soundFiles/1000Hz_-3dBFS_3s_44.1kHz.wav',None,1000,,,,,24,3,99,1,,,,,615.7243930999998,616.7086347999998,616.7083223400001,619.2084264999999,None,1,,,,,,,,,,,,,,elpida1310,002,2023-10-13_14h04.45.653,Oddball_task,2022.2.5,59.705663022410945,
standard,soundFiles/1000Hz_-3dBFS_3s_44.1kHz.wav',None,1000,,,,,25,0,100,0,,,,,619.2246307,620.2085621000001,620.20779744,622.7085951999998,None,1,,,,,,,,,,,,,,elpida1310,002,2023-10-13_14h04.45.653,Oddball_task,2022.2.5,59.705663022410945,
standard,soundFiles/1000Hz_-3dBFS_3s_44.1kHz.wav',None,1000,,,,,25,1,101,0,,,,,622.7242646,623.7090938000001,623.7078855400001,,None,1,,,,,,,,,,,,,,elpida1310,002,2023-10-13_14h04.45.653,Oddball_task,2022.2.5,59.705663022410945,
standard,soundFiles/1000Hz_-3dBFS_3s_44.1kHz.wav',None,1000,,,,,25,2,102,1,,,,,626.2237591999997,627.2074582,627.2092203399999,629.7069748999998,None,1,,,,,,,,,,,,,,elpida1310,002,2023-10-13_14h04.45.653,Oddball_task,2022.2.5,59.705663022410945,
target,soundFiles/1200Hz_-3dBFS_3s_44.1kHz.wav',t,1200,,,,,25,3,103,3,,,,,629.7231548999998,630.7077365,630.7073497399998,633.2073038999997,t,1,,0.9138767000008556,,,,,,,,,,,,elpida1310,002,2023-10-13_14h04.45.653,Oddball_task,2022.2.5,59.705663022410945,
standard,soundFiles/1000Hz_-3dBFS_3s_44.1kHz.wav',None,1000,,,,,26,0,104,0,,,,,633.2236110000003,634.2062258999995,634.2059374400002,636.7072440000002,None,1,,,,,,,,,,,,,,elpida1310,002,2023-10-13_14h04.45.653,Oddball_task,2022.2.5,59.705663022410945,
target,soundFiles/1200Hz_-3dBFS_3s_44.1kHz.wav',t,1200,,,,,26,1,105,3,,,,,636.7228477999997,637.7064371999995,637.7060704399997,640.2071214999996,t,1,,0.8338676999997006,,,,,,,,,,,,elpida1310,002,2023-10-13_14h04.45.653,Oddball_task,2022.2.5,59.705663022410945,
standard,soundFiles/1000Hz_-3dBFS_3s_44.1kHz.wav',None,1000,,,,,26,2,106,2,,,,,640.2228918999999,641.2062466999996,641.2058297399996,643.7066281999996,None,1,,,,,,,,,,,,,,elpida1310,002,2023-10-13_14h04.45.653,Oddball_task,2022.2.5,59.705663022410945,
target,soundFiles/1200Hz_-3dBFS_3s_44.1kHz.wav',t,1200,,,,,26,3,107,3,,,,,643.7230105999997,644.7055172999999,644.7052904400003,647.2065852999995,t,1,,0.7559314000004633,,,,,,,,,,,,elpida1310,002,2023-10-13_14h04.45.653,Oddball_task,2022.2.5,59.705663022410945,
standard,soundFiles/1000Hz_-3dBFS_3s_44.1kHz.wav',None,1000,,,,,27,0,108,1,,,,,647.2229286000002,648.2064531999995,648.2064851399997,,None,1,,,,,,,,,,,,,,elpida1310,002,2023-10-13_14h04.45.653,Oddball_task,2022.2.5,59.705663022410945,
standard,soundFiles/1000Hz_-3dBFS_3s_44.1kHz.wav',None,1000,,,,,27,1,109,2,,,,,650.7216005,651.7055492999998,651.7047475400001,654.2051241999998,None,1,,,,,,,,,,,,,,elpida1310,002,2023-10-13_14h04.45.653,Oddball_task,2022.2.5,59.705663022410945,
target,soundFiles/1200Hz_-3dBFS_3s_44.1kHz.wav',t,1200,,,,,27,2,110,3,,,,,654.2213475999997,655.2049397999999,655.2046569399996,657.7052269999995,t,1,,0.9603969000004327,,,,,,,,,,,,elpida1310,002,2023-10-13_14h04.45.653,Oddball_task,2022.2.5,59.705663022410945,
standard,soundFiles/1000Hz_-3dBFS_3s_44.1kHz.wav',None,1000,,,,,27,3,111,0,,,,,657.7218451999997,658.7048804999995,658.7047759399999,661.2046402999995,None,1,,,,,,,,,,,,,,elpida1310,002,2023-10-13_14h04.45.653,Oddball_task,2022.2.5,59.705663022410945,
standard,soundFiles/1000Hz_-3dBFS_3s_44.1kHz.wav',None,1000,,,,,28,0,112,1,,,,,661.2214389999999,662.2046385000003,662.2041101399997,664.7053800000003,None,1,,,663.2054987000001,,,,,,,,,,,elpida1310,002,2023-10-13_14h04.45.653,Oddball_task,2022.2.5,59.705663022410945,
standard,soundFiles/1000Hz_-3dBFS_3s_44.1kHz.wav',None,1000,,,,,28,1,113,1,,,,,664.7209663000003,665.7046898999997,665.7040358399996,668.2050419999996,None,1,,,,,,,,,,,,,,elpida1310,002,2023-10-13_14h04.45.653,Oddball_task,2022.2.5,59.705663022410945,
target,soundFiles/1200Hz_-3dBFS_3s_44.1kHz.wav',t,1200,,,,,28,2,114,3,,,,,668.2212086999998,669.2044690000002,669.2042630399998,671.7041420999994,t,1,,0.7263833000001796,,,,,,,,,,,,elpida1310,002,2023-10-13_14h04.45.653,Oddball_task,2022.2.5,59.705663022410945,
target,soundFiles/1200Hz_-3dBFS_3s_44.1kHz.wav',t,1200,,,,,28,3,115,3,,,,,671.7212473999998,672.7040393999996,672.7037788399999,675.2044052000001,t,1,,1.085367000000133,,,,,,,,,,,,elpida1310,002,2023-10-13_14h04.45.653,Oddball_task,2022.2.5,59.705663022410945,
target,soundFiles/1200Hz_-3dBFS_3s_44.1kHz.wav',t,1200,,,,,29,0,116,3,,,,,675.2205370000001,676.2036265999996,676.20381444,678.7048162000001,t,1,,0.8410676000007697,,,,,,,,,,,,elpida1310,002,2023-10-13_14h04.45.653,Oddball_task,2022.2.5,59.705663022410945,
target,soundFiles/1200Hz_-3dBFS_3s_44.1kHz.wav',t,1200,,,,,29,1,117,3,,,,,678.7208545000003,679.7051251000003,679.7042040399998,682.2049907999999,t,1,,0.9955560000003061,680.7049318999998,,,,,,,,,,,elpida1310,002,2023-10-13_14h04.45.653,Oddball_task,2022.2.5,59.705663022410945,
standard,soundFiles/1000Hz_-3dBFS_3s_44.1kHz.wav',None,1000,,,,,29,2,118,2,,,,,682.2211525000002,683.2045355,683.2039628400004,,None,1,,,,,,,,,,,,,,elpida1310,002,2023-10-13_14h04.45.653,Oddball_task,2022.2.5,59.705663022410945,
standard,soundFiles/1000Hz_-3dBFS_3s_44.1kHz.wav',None,1000,,,,,29,3,119,1,,,,,685.7196397999996,686.7035097999997,686.7030259399995,689.2034715999998,None,1,,,,,,,,,,,,,,elpida1310,002,2023-10-13_14h04.45.653,Oddball_task,2022.2.5,59.705663022410945,
target,soundFiles/1200Hz_-3dBFS_3s_44.1kHz.wav',t,1200,,,,,30,0,120,3,,,,,689.2201382000003,690.2033116000002,690.2024804400004,692.7036501000002,t,1,,0.7226331000006212,,,,,,,,,,,,elpida1310,002,2023-10-13_14h04.45.653,Oddball_task,2022.2.5,59.705663022410945,
standard,soundFiles/1000Hz_-3dBFS_3s_44.1kHz.wav',None,1000,,,,,30,1,121,2,,,,,692.7195159000003,693.7027069999995,693.7023168399998,696.2033028999995,None,1,,,,,,,,,,,,,,elpida1310,002,2023-10-13_14h04.45.653,Oddball_task,2022.2.5,59.705663022410945,
standard,soundFiles/1000Hz_-3dBFS_3s_44.1kHz.wav',None,1000,,,,,30,2,122,1,,,,,696.2192164999997,697.2031630000001,697.2025098399996,699.7032767000001,None,1,,,,,,,,,,,,,,elpida1310,002,2023-10-13_14h04.45.653,Oddball_task,2022.2.5,59.705663022410945,
standard,soundFiles/1000Hz_-3dBFS_3s_44.1kHz.wav',None,1000,,,,,30,3,123,2,,,,,699.7190177000002,700.7031317000001,700.7023643400004,703.2028767000002,None,1,,,,,,,,,,,,,,elpida1310,002,2023-10-13_14h04.45.653,Oddball_task,2022.2.5,59.705663022410945,
standard,soundFiles/1000Hz_-3dBFS_3s_44.1kHz.wav',None,1000,,,,,31,0,124,2,,,,,703.2192911000002,704.2037186999996,704.2021875400002,,None,1,,,,,,,,,,,,,,elpida1310,002,2023-10-13_14h04.45.653,Oddball_task,2022.2.5,59.705663022410945,
standard,soundFiles/1000Hz_-3dBFS_3s_44.1kHz.wav',None,1000,,,,,31,1,125,1,,,,,706.7184012999996,707.7027940999997,707.7021871399999,,None,1,,,,,,,,,,,,,,elpida1310,002,2023-10-13_14h04.45.653,Oddball_task,2022.2.5,59.705663022410945,
standard,soundFiles/1000Hz_-3dBFS_3s_44.1kHz.wav',None,1000,,,,,31,2,126,1,,,,,710.2177613000003,711.2018188000002,711.2016313399996,713.7023429999999,None,1,,,,,,,,,,,,,,elpida1310,002,2023-10-13_14h04.45.653,Oddball_task,2022.2.5,59.705663022410945,
standard,soundFiles/1000Hz_-3dBFS_3s_44.1kHz.wav',None,1000,,,,,31,3,127,0,,,,,713.7191419000001,714.7023386000001,714.7017249400002,717.2016045999999,None,1,,,,,,,,,,,,,,elpida1310,002,2023-10-13_14h04.45.653,Oddball_task,2022.2.5,59.705663022410945,
standard,soundFiles/1000Hz_-3dBFS_3s_44.1kHz.wav',None,1000,,,,,32,0,128,1,,,,,717.2181576000003,718.2012549000001,718.2008910399996,720.7017895999998,None,1,,,,,,,,,,,,,,elpida1310,002,2023-10-13_14h04.45.653,Oddball_task,2022.2.5,59.705663022410945,
standard,soundFiles/1000Hz_-3dBFS_3s_44.1kHz.wav',None,1000,,,,,32,1,129,2,,,,,720.7177253,721.7040687999997,721.7014784399995,,None,1,,,,,,,,,,,,,,elpida1310,002,2023-10-13_14h04.45.653,Oddball_task,2022.2.5,59.705663022410945,
target,soundFiles/1200Hz_-3dBFS_3s_44.1kHz.wav',t,1200,,,,,32,2,130,3,,,,,724.2176696999995,725.2015793,725.2013504399998,727.7021008000002,t,1,,0.8556216000001768,,,,,,,,,,,,elpida1310,002,2023-10-13_14h04.45.653,Oddball_task,2022.2.5,59.705663022410945,
target,soundFiles/1200Hz_-3dBFS_3s_44.1kHz.wav',t,1200,,,,,32,3,131,3,,,,,727.7174118000003,728.7016598999999,728.7006468400001,731.2013797,t,1,,0.9957582000001821,,,,,,,,,,,,elpida1310,002,2023-10-13_14h04.45.653,Oddball_task,2022.2.5,59.705663022410945,
standard,soundFiles/1000Hz_-3dBFS_3s_44.1kHz.wav',None,1000,,,,,33,0,132,1,,,,,731.2172616999997,732.2008512000002,732.2004003400003,,None,1,,,,,,,,,,,,,,elpida1310,002,2023-10-13_14h04.45.653,Oddball_task,2022.2.5,59.705663022410945,
standard,soundFiles/1000Hz_-3dBFS_3s_44.1kHz.wav',None,1000,,,,,33,1,133,0,,,,,734.7169279,735.7017819000002,735.7005231399995,738.2007249999997,None,1,,,,,,,,,,,,,,elpida1310,002,2023-10-13_14h04.45.653,Oddball_task,2022.2.5,59.705663022410945,
standard,soundFiles/1000Hz_-3dBFS_3s_44.1kHz.wav',None,1000,,,,,33,2,134,2,,,,,738.2164669000003,739.2014288,739.2006741399997,,None,1,,,,,,,,,,,,,,elpida1310,002,2023-10-13_14h04.45.653,Oddball_task,2022.2.5,59.705663022410945,
standard,soundFiles/1000Hz_-3dBFS_3s_44.1kHz.wav',None,1000,,,,,33,3,135,0,,,,,741.7176199999994,742.7006695999999,742.7000051399997,745.2005748000001,None,1,,,,,,,,,,,,,,elpida1310,002,2023-10-13_14h04.45.653,Oddball_task,2022.2.5,59.705663022410945,
standard,soundFiles/1000Hz_-3dBFS_3s_44.1kHz.wav',None,1000,,,,,34,0,136,1,,,,,745.2162467999997,746.1998885000003,746.1996485400001,748.6999000999995,None,1,,,,,,,,,,,,,,elpida1310,002,2023-10-13_14h04.45.653,Oddball_task,2022.2.5,59.705663022410945,
standard,soundFiles/1000Hz_-3dBFS_3s_44.1kHz.wav',None,1000,,,,,34,1,137,2,,,,,748.7164929,749.6990969999997,749.6987798400002,752.2004016999999,None,1,,,,,,,,,,,,,,elpida1310,002,2023-10-13_14h04.45.653,Oddball_task,2022.2.5,59.705663022410945,
standard,soundFiles/1000Hz_-3dBFS_3s_44.1kHz.wav',None,1000,,,,,34,2,138,1,,,,,752.2166797,753.2003907999997,753.19971124,,None,1,,,,,,,,,,,,,,elpida1310,002,2023-10-13_14h04.45.653,Oddball_task,2022.2.5,59.705663022410945,
standard,soundFiles/1000Hz_-3dBFS_3s_44.1kHz.wav',None,1000,,,,,34,3,139,2,,,,,755.7155119999998,756.6993563999995,756.6986347400003,759.2000564999998,None,1,,,,,,,,,,,,,,elpida1310,002,2023-10-13_14h04.45.653,Oddball_task,2022.2.5,59.705663022410945,
standard,soundFiles/1000Hz_-3dBFS_3s_44.1kHz.wav',None,1000,,,,,35,0,140,0,,,,,759.2153392,760.1990333000003,760.1988044400001,762.6994198000002,None,1,,,,,,,,,,,,,,elpida1310,002,2023-10-13_14h04.45.653,Oddball_task,2022.2.5,59.705663022410945,
standard,soundFiles/1000Hz_-3dBFS_3s_44.1kHz.wav',None,1000,,,,,35,1,141,2,,,,,762.7156021999999,763.6985945999995,763.6986752399995,766.1993385999995,None,1,,,764.6992119999995,,,,,,,,,,,elpida1310,002,2023-10-13_14h04.45.653,Oddball_task,2022.2.5,59.705663022410945,
standard,soundFiles/1000Hz_-3dBFS_3s_44.1kHz.wav',None,1000,,,,,35,2,142,1,,,,,766.2150431999999,767.1988752999996,767.1977645399999,769.6990435999996,None,1,,,,,,,,,,,,,,elpida1310,002,2023-10-13_14h04.45.653,Oddball_task,2022.2.5,59.705663022410945,
standard,soundFiles/1000Hz_-3dBFS_3s_44.1kHz.wav',None,1000,,,,,35,3,143,2,,,,,769.7147041999997,770.6983219000003,770.6979761400004,773.1986753000001,None,1,,,,,,,,,,,,,,elpida1310,002,2023-10-13_14h04.45.653,Oddball_task,2022.2.5,59.705663022410945,
standard,soundFiles/1000Hz_-3dBFS_3s_44.1kHz.wav',None,1000,,,,,36,0,144,0,,,,,773.2146142000001,774.1985938999997,774.1978816400002,,None,1,,,,,,,,,,,,,,elpida1310,002,2023-10-13_14h04.45.653,Oddball_task,2022.2.5,59.705663022410945,
standard,soundFiles/1000Hz_-3dBFS_3s_44.1kHz.wav',None,1000,,,,,36,1,145,1,,,,,776.7147359999999,777.6980002,777.6975897400004,780.1983107999995,None,1,,,,,,,,,,,,,,elpida1310,002,2023-10-13_14h04.45.653,Oddball_task,2022.2.5,59.705663022410945,
standard,soundFiles/1000Hz_-3dBFS_3s_44.1kHz.wav',None,1000,,,,,36,2,146,2,,,,,780.2147352000002,781.1977220999997,781.1970992399998,783.6980311999996,None,1,,,,,,,,,,,,,,elpida1310,002,2023-10-13_14h04.45.653,Oddball_task,2022.2.5,59.705663022410945,
standard,soundFiles/1000Hz_-3dBFS_3s_44.1kHz.wav',None,1000,,,,,36,3,147,0,,,,,783.7142218999998,784.6970116000002,784.6971451400001,787.1970419999998,None,1,,,785.6978335000003,,,,,787.2132344000001,,,,,,elpida1310,002,2023-10-13_14h04.45.653,Oddball_task,2022.2.5,59.705663022410945,
standard,soundFiles/1000Hz_-3dBFS_3s_44.1kHz.wav',None,1000,,,,,37,0,148,0,,,,,787.2132344000001,788.1967540999995,788.1965510400001,790.6970683999998,None,1,,,,,,,,790.7132216,,,,,,elpida1310,002,2023-10-13_14h04.45.653,Oddball_task,2022.2.5,59.705663022410945,
standard,soundFiles/1000Hz_-3dBFS_3s_44.1kHz.wav',None,1000,,,,,37,1,149,0,,,,,790.7132216,791.6969437999996,791.6966140399996,794.1977545,None,1,,,,,,,,,,,,,,elpida1310,002,2023-10-13_14h04.45.653,Oddball_task,2022.2.5,59.705663022410945,
standard,soundFiles/1000Hz_-3dBFS_3s_44.1kHz.wav',None,1000,,,,,37,2,150,1,,,,,794.2132618999995,795.1975621000001,795.1963236400003,797.7122926000002,None,1,,,,,,,,797.7122926000002,,,,,,elpida1310,002,2023-10-13_14h04.45.653,Oddball_task,2022.2.5,59.705663022410945,
standard,soundFiles/1000Hz_-3dBFS_3s_44.1kHz.wav',None,1000,,,,,37,3,151,2,,,,,797.7122926000002,798.6974356000001,798.69673854,801.1972416999997,None,1,,,,,,,,,,,,,,elpida1310,002,2023-10-13_14h04.45.653,Oddball_task,2022.2.5,59.705663022410945,
standard,soundFiles/1000Hz_-3dBFS_3s_44.1kHz.wav',None,1000,,,,,38,0,152,2,,,,,801.2142101,802.1973627999996,802.1971467399995,804.6981565999995,None,1,,,,,,,,,,,,,,elpida1310,002,2023-10-13_14h04.45.653,Oddball_task,2022.2.5,59.705663022410945,
target,soundFiles/1200Hz_-3dBFS_3s_44.1kHz.wav',t,1200,,,,,38,1,153,3,,,,,804.7135194000002,805.7133388000002,805.7134943400002,808.2130539999998,t,1,,0.8207173000005241,,,,,,808.2130539999998,,,,,,elpida1310,002,2023-10-13_14h04.45.653,Oddball_task,2022.2.5,59.705663022410945,
standard,soundFiles/1000Hz_-3dBFS_3s_44.1kHz.wav',None,1000,,,,,38,2,154,2,,,,,808.2130539999998,809.2122963000002,809.2127867400001,811.7122879999997,None,1,,,,,,,,811.7122879999997,,,,,,elpida1310,002,2023-10-13_14h04.45.653,Oddball_task,2022.2.5,59.705663022410945,
standard,soundFiles/1000Hz_-3dBFS_3s_44.1kHz.wav',None,1000,,,,,38,3,155,0,,,,,811.7122879999997,812.7114959,812.7120199400002,815.2122872999998,None,1,,,,,,,,815.2122872999998,,,,,,elpida1310,002,2023-10-13_14h04.45.653,Oddball_task,2022.2.5,59.705663022410945,
standard,soundFiles/1000Hz_-3dBFS_3s_44.1kHz.wav',None,1000,,,,,39,0,156,2,,,,,815.2122872999998,816.2125317999999,816.2121995399999,818.7122361000002,None,1,,,,,,,,818.7122361000002,,,,,,elpida1310,002,2023-10-13_14h04.45.653,Oddball_task,2022.2.5,59.705663022410945,
standard,soundFiles/1000Hz_-3dBFS_3s_44.1kHz.wav',None,1000,,,,,39,1,157,2,,,,,818.7122361000002,819.7114691999996,819.7116583399999,822.2120574,None,1,,,820.7123695,,,,,822.2120574,,,,,,elpida1310,002,2023-10-13_14h04.45.653,Oddball_task,2022.2.5,59.705663022410945,
standard,soundFiles/1000Hz_-3dBFS_3s_44.1kHz.wav',None,1000,,,,,39,2,158,0,,,,,822.2120574,823.2113633999998,823.2117351399999,825.7110421999996,None,1,,,,,,,,825.7110421999996,,,,,,elpida1310,002,2023-10-13_14h04.45.653,Oddball_task,2022.2.5,59.705663022410945,
standard,soundFiles/1000Hz_-3dBFS_3s_44.1kHz.wav',None,1000,,,,,39,3,159,1,,,,,825.7110421999996,826.7118328999995,826.7118979399999,829.2113386000001,None,1,,,,,,,,829.2113386000001,,,,,,elpida1310,002,2023-10-13_14h04.45.653,Oddball_task,2022.2.5,59.705663022410945,
standard,soundFiles/1000Hz_-3dBFS_3s_44.1kHz.wav',None,1000,,,,,40,0,160,2,,,,,829.2113386000001,830.2110573,830.2109884400003,832.7110959000001,None,1,,,,,,,,832.7110959000001,,,,,,elpida1310,002,2023-10-13_14h04.45.653,Oddball_task,2022.2.5,59.705663022410945,
standard,soundFiles/1000Hz_-3dBFS_3s_44.1kHz.wav',None,1000,,,,,40,1,161,2,,,,,832.7110959000001,833.7116338999995,833.7121802400003,836.2101262999995,None,1,,,,,,,,836.2101262999995,,,,,,elpida1310,002,2023-10-13_14h04.45.653,Oddball_task,2022.2.5,59.705663022410945,
standard,soundFiles/1000Hz_-3dBFS_3s_44.1kHz.wav',None,1000,,,,,40,2,162,0,,,,,836.2101262999995,837.2107718999996,837.2104423400002,839.7101265000001,None,1,,,,,,,,839.7101265000001,,,,,,elpida1310,002,2023-10-13_14h04.45.653,Oddball_task,2022.2.5,59.705663022410945,
standard,soundFiles/1000Hz_-3dBFS_3s_44.1kHz.wav',None,1000,,,,,40,3,163,1,,,,,839.7101265000001,840.7098022,840.7105264400003,843.2110124000001,None,1,,,,,,,,843.2110124000001,,,,,,elpida1310,002,2023-10-13_14h04.45.653,Oddball_task,2022.2.5,59.705663022410945,
standard,soundFiles/1000Hz_-3dBFS_3s_44.1kHz.wav',None,1000,,,,,41,0,164,0,,,,,843.2110124000001,844.2104658999997,844.2104826399997,846.7096634999998,None,1,,,,,,,,846.7096634999998,,,,,,elpida1310,002,2023-10-13_14h04.45.653,Oddball_task,2022.2.5,59.705663022410945,
standard,soundFiles/1000Hz_-3dBFS_3s_44.1kHz.wav',None,1000,,,,,41,1,165,2,,,,,846.7096634999998,847.7102649999997,847.7097516399996,850.2097163999997,None,1,,,,,,,,850.2097163999997,,,,,,elpida1310,002,2023-10-13_14h04.45.653,Oddball_task,2022.2.5,59.705663022410945,
standard,soundFiles/1000Hz_-3dBFS_3s_44.1kHz.wav',None,1000,,,,,41,2,166,1,,,,,850.2097163999997,851.2091031999998,851.2096867400002,853.7095485,None,1,,,,,,,,853.7095485,,,,,,elpida1310,002,2023-10-13_14h04.45.653,Oddball_task,2022.2.5,59.705663022410945,
standard,soundFiles/1000Hz_-3dBFS_3s_44.1kHz.wav',None,1000,,,,,41,3,167,2,,,,,853.7095485,854.7099262000002,854.71025264,857.2094113000003,None,1,,,,,,,,857.2094113000003,,,,,,elpida1310,002,2023-10-13_14h04.45.653,Oddball_task,2022.2.5,59.705663022410945,
standard,soundFiles/1000Hz_-3dBFS_3s_44.1kHz.wav',None,1000,,,,,42,0,168,1,,,,,857.2094113000003,858.2090495000002,858.2102042399998,860.7104886999996,None,1,,,859.2107072999997,,,,,860.7104886999996,,,,,,elpida1310,002,2023-10-13_14h04.45.653,Oddball_task,2022.2.5,59.705663022410945,
target,soundFiles/1200Hz_-3dBFS_3s_44.1kHz.wav',t,1200,,,,,42,1,169,3,,,,,860.7104886999996,861.7095119999994,861.7108020399997,864.2093643999997,t,1,,1.1617080999999416,,,,,,864.2093643999997,,,,,,elpida1310,002,2023-10-13_14h04.45.653,Oddball_task,2022.2.5,59.705663022410945,
standard,soundFiles/1000Hz_-3dBFS_3s_44.1kHz.wav',None,1000,,,,,42,2,170,1,,,,,864.2093643999997,865.2093169,865.2096123400003,867.7093275999996,None,1,,,,,,,,867.7093275999996,,,,,,elpida1310,002,2023-10-13_14h04.45.653,Oddball_task,2022.2.5,59.705663022410945,
standard,soundFiles/1000Hz_-3dBFS_3s_44.1kHz.wav',None,1000,,,,,42,3,171,1,,,,,867.7093275999996,868.7079415999997,868.7084952399997,871.2085115999998,None,1,,,,,,,,871.2085115999998,,,,,,elpida1310,002,2023-10-13_14h04.45.653,Oddball_task,2022.2.5,59.705663022410945,
target,soundFiles/1200Hz_-3dBFS_3s_44.1kHz.wav',t,1200,,,,,43,0,172,3,,,,,871.2085115999998,872.2086417,872.2094425399997,874.7083739999998,t,1,,0.8751247000004696,,,,,,874.7083739999998,,,,,,elpida1310,002,2023-10-13_14h04.45.653,Oddball_task,2022.2.5,59.705663022410945,
standard,soundFiles/1000Hz_-3dBFS_3s_44.1kHz.wav',None,1000,,,,,43,1,173,2,,,,,874.7083739999998,875.7082756,875.7089806399996,878.2079050000002,None,1,,,,,,,,878.2079050000002,,,,,,elpida1310,002,2023-10-13_14h04.45.653,Oddball_task,2022.2.5,59.705663022410945,
standard,soundFiles/1000Hz_-3dBFS_3s_44.1kHz.wav',None,1000,,,,,43,2,174,1,,,,,878.2079050000002,879.2080438000003,879.2087564399995,881.7078181999996,None,1,,,,,,,,881.7078181999996,,,,,,elpida1310,002,2023-10-13_14h04.45.653,Oddball_task,2022.2.5,59.705663022410945,
standard,soundFiles/1000Hz_-3dBFS_3s_44.1kHz.wav',None,1000,,,,,43,3,175,1,,,,,881.7078181999996,882.7079121999996,882.7092077399999,885.2078709999996,None,1,,,,,,,,885.2078709999996,,,,,,elpida1310,002,2023-10-13_14h04.45.653,Oddball_task,2022.2.5,59.705663022410945,
standard,soundFiles/1000Hz_-3dBFS_3s_44.1kHz.wav',None,1000,,,,,44,0,176,0,,,,,885.2078709999996,886.2074395999998,886.20854914,888.7078338000001,None,1,,,,,,,,888.7078338000001,,,,,,elpida1310,002,2023-10-13_14h04.45.653,Oddball_task,2022.2.5,59.705663022410945,
standard,soundFiles/1000Hz_-3dBFS_3s_44.1kHz.wav',None,1000,,,,,44,1,177,2,,,,,888.7078338000001,889.7073084000003,889.7078670400002,892.2072402000003,None,1,,,,,,,,892.2072402000003,,,,,,elpida1310,002,2023-10-13_14h04.45.653,Oddball_task,2022.2.5,59.705663022410945,
target,soundFiles/1200Hz_-3dBFS_3s_44.1kHz.wav',t,1200,,,,,44,2,178,3,,,,,892.2072402000003,893.2073094999996,893.2077539400003,895.7072330000001,t,1,,0.7698610000002191,,,,,,895.7072330000001,,,,,,elpida1310,002,2023-10-13_14h04.45.653,Oddball_task,2022.2.5,59.705663022410945,
standard,soundFiles/1000Hz_-3dBFS_3s_44.1kHz.wav',None,1000,,,,,44,3,179,0,,,,,895.7072330000001,896.7068756999997,896.7076538400003,899.2078954999997,None,1,,,,,,,,899.2078954999997,,,,,,elpida1310,002,2023-10-13_14h04.45.653,Oddball_task,2022.2.5,59.705663022410945,
target,soundFiles/1200Hz_-3dBFS_3s_44.1kHz.wav',t,1200,,,,,45,0,180,3,,,,,899.2078954999997,900.2067642000002,900.2068638400002,902.7071770000002,t,1,,0.8225085999997646,901.2070854000003,,,,,902.7071770000002,,,,,,elpida1310,002,2023-10-13_14h04.45.653,Oddball_task,2022.2.5,59.705663022410945,
standard,soundFiles/1000Hz_-3dBFS_3s_44.1kHz.wav',None,1000,,,,,45,1,181,1,,,,,902.7071770000002,903.7078849,903.7070873400004,906.2067040000002,None,1,,,,,,,,906.2067040000002,,,,,,elpida1310,002,2023-10-13_14h04.45.653,Oddball_task,2022.2.5,59.705663022410945,
target,soundFiles/1200Hz_-3dBFS_3s_44.1kHz.wav',t,1200,,,,,45,2,182,3,,,,,906.2067040000002,907.2064241999997,907.2066952399997,909.7056437000001,t,1,,0.9457976000007875,,,,,,909.7056437000001,,,,,,elpida1310,002,2023-10-13_14h04.45.653,Oddball_task,2022.2.5,59.705663022410945,
standard,soundFiles/1000Hz_-3dBFS_3s_44.1kHz.wav',None,1000,,,,,45,3,183,2,,,,,909.7056437000001,910.7057736999996,910.7066503399998,913.2061068000003,None,1,,,,,,,,913.2061068000003,,,,,,elpida1310,002,2023-10-13_14h04.45.653,Oddball_task,2022.2.5,59.705663022410945,
standard,soundFiles/1000Hz_-3dBFS_3s_44.1kHz.wav',None,1000,,,,,46,0,184,0,,,,,913.2061068000003,914.2063269999999,914.2065090399998,916.7059333999996,None,1,,,,,,,,916.7059333999996,,,,,,elpida1310,002,2023-10-13_14h04.45.653,Oddball_task,2022.2.5,59.705663022410945,
standard,soundFiles/1000Hz_-3dBFS_3s_44.1kHz.wav',None,1000,,,,,46,1,185,0,,,,,916.7059333999996,917.7055711000003,917.7066677399995,920.2059320999997,None,1,,,,,,,,920.2059320999997,,,,,,elpida1310,002,2023-10-13_14h04.45.653,Oddball_task,2022.2.5,59.705663022410945,
target,soundFiles/1200Hz_-3dBFS_3s_44.1kHz.wav',t,1200,,,,,46,2,186,3,,,,,920.2059320999997,921.2062286,921.20669564,923.7055390999994,t,1,,0.8768462000002728,922.205817,,,,,923.7055390999994,,,,,,elpida1310,002,2023-10-13_14h04.45.653,Oddball_task,2022.2.5,59.705663022410945,
standard,soundFiles/1000Hz_-3dBFS_3s_44.1kHz.wav',None,1000,,,,,46,3,187,2,,,,,923.7055390999994,924.7057315000002,924.7063451399996,927.2052136000002,None,1,,,,,,,,927.2052136000002,,,,,,elpida1310,002,2023-10-13_14h04.45.653,Oddball_task,2022.2.5,59.705663022410945,
target,soundFiles/1200Hz_-3dBFS_3s_44.1kHz.wav',t,1200,,,,,47,0,188,3,,,,,927.2052136000002,928.2050454,928.2062243400002,930.7052093000002,t,1,,0.9925323000002209,,,,,,930.7052093000002,,,,,,elpida1310,002,2023-10-13_14h04.45.653,Oddball_task,2022.2.5,59.705663022410945,
standard,soundFiles/1000Hz_-3dBFS_3s_44.1kHz.wav',None,1000,,,,,47,1,189,0,,,,,930.7052093000002,931.7055567999996,931.7064082399999,934.2052099000002,None,1,,,,,,,,934.2052099000002,,,,,,elpida1310,002,2023-10-13_14h04.45.653,Oddball_task,2022.2.5,59.705663022410945,
standard,soundFiles/1000Hz_-3dBFS_3s_44.1kHz.wav',None,1000,,,,,47,2,190,1,,,,,934.2052099000002,935.2051067000002,935.2054904399998,937.7041546999999,None,1,,,,,,,,937.7041546999999,,,,,,elpida1310,002,2023-10-13_14h04.45.653,Oddball_task,2022.2.5,59.705663022410945,
standard,soundFiles/1000Hz_-3dBFS_3s_44.1kHz.wav',None,1000,,,,,47,3,191,2,,,,,937.7041546999999,938.7044581,938.7054551400003,941.2051756000001,None,1,,,,,,,,941.2051756000001,,,,,,elpida1310,002,2023-10-13_14h04.45.653,Oddball_task,2022.2.5,59.705663022410945,
standard,soundFiles/1000Hz_-3dBFS_3s_44.1kHz.wav',None,1000,,,,,48,0,192,1,,,,,941.2051756000001,942.2041632999999,942.2048012399997,944.7034578000003,None,1,,,,,,,,944.7034578000003,,,,,,elpida1310,002,2023-10-13_14h04.45.653,Oddball_task,2022.2.5,59.705663022410945,
standard,soundFiles/1000Hz_-3dBFS_3s_44.1kHz.wav',None,1000,,,,,48,1,193,2,,,,,944.7034578000003,945.7036459000001,945.7054454400001,948.2043333000001,None,1,,,946.7041372000003,,,,,948.2043333000001,,,,,,elpida1310,002,2023-10-13_14h04.45.653,Oddball_task,2022.2.5,59.705663022410945,
standard,soundFiles/1000Hz_-3dBFS_3s_44.1kHz.wav',None,1000,,,,,48,2,194,1,,,,,948.2043333000001,949.2038609000001,949.2051261399998,951.7031976999997,None,1,,,,,,,,951.7031976999997,,,,,,elpida1310,002,2023-10-13_14h04.45.653,Oddball_task,2022.2.5,59.705663022410945,
standard,soundFiles/1000Hz_-3dBFS_3s_44.1kHz.wav',None,1000,,,,,48,3,195,1,,,,,951.7031976999997,952.7042806,952.7040181400004,955.2033528000002,None,1,,,,,,,,955.2033528000002,,,,,,elpida1310,002,2023-10-13_14h04.45.653,Oddball_task,2022.2.5,59.705663022410945,
target,soundFiles/1200Hz_-3dBFS_3s_44.1kHz.wav',t,1200,,,,,49,0,196,3,,,,,955.2033528000002,956.2034840999995,956.20402204,958.7036172999997,t,1,,0.729594700000689,,,,,,958.7036172999997,,,,,,elpida1310,002,2023-10-13_14h04.45.653,Oddball_task,2022.2.5,59.705663022410945,
target,soundFiles/1200Hz_-3dBFS_3s_44.1kHz.wav',t,1200,,,,,49,1,197,3,,,,,958.7036172999997,959.7038931999996,959.7039419399995,962.2028856999996,t,1,,0.9236868000002687,,,,,,962.2028856999996,,,,,,elpida1310,002,2023-10-13_14h04.45.653,Oddball_task,2022.2.5,59.705663022410945,
standard,soundFiles/1000Hz_-3dBFS_3s_44.1kHz.wav',None,1000,,,,,49,2,198,1,,,,,962.2028856999996,963.2023847,963.2034440399999,965.7029652000001,None,1,,,,,,,,965.7029652000001,,,,,,elpida1310,002,2023-10-13_14h04.45.653,Oddball_task,2022.2.5,59.705663022410945,
standard,soundFiles/1000Hz_-3dBFS_3s_44.1kHz.wav',None,1000,,,,,49,3,199,0,,,,,965.7029652000001,966.7022604000003,966.70253844,969.2023300999999,None,1,,,,,,,,969.2023300999999,,,,,,elpida1310,002,2023-10-13_14h04.45.653,Oddball_task,2022.2.5,59.705663022410945,
,,,,,,,,,,,,,,,,,,,,,,,,,,,,,,969.2023300999999,972.2019773000002,972.2019773000002,e,11.213972500000182,elpida1310,002,2023-10-13_14h04.45.653,Oddball_task,2022.2.5,59.705663022410945,
