trial,file,corrAns,tone,trials.thisRepN,trials.thisTrialN,trials.thisN,trials.thisIndex,trials_2.thisRepN,trials_2.thisTrialN,trials_2.thisN,trials_2.thisIndex,instructions.started,key_resp_1.started,key_resp_1.keys,key_resp_1.rt,fixation.started,response.started,sound_1.started,response.keys,response.corr,feedback_text.started,response.rt,response.stopped,instructions_2.started,key_resp_2.started,key_resp_2.keys,key_resp_2.rt,sound_1.stopped,fixation.stopped,thank_you.started,exit_exp.started,thank_you.stopped,participant,session,date,expName,psychopyVersion,frameRate,
,,,,,,,,,,,,20.045672299995204,20.045672299995204,space,376.9915079999919,,,,,,,,,,,,,,,,,,Levi,001,2023-10-17_15h56.51.997,Oddball_task,2022.2.5,60.05825650843395,
standard,soundFiles/1000Hz_-3dBFS_3s_44.1kHz.wav',None,1000,0,0,0,0,,,,,,,,,397.08604360000754,398.07013469999947,398.0670469499979,None,1,400.58157799999753,,,,,,,,,,,,Levi,001,2023-10-17_15h56.51.997,Oddball_task,2022.2.5,60.05825650843395,
standard,soundFiles/1000Hz_-3dBFS_3s_44.1kHz.wav',None,1000,0,1,1,2,,,,,,,,,401.5815059000015,402.5634979000024,402.5630932500004,None,1,405.0773654000077,,,,,,,,,,,,Levi,001,2023-10-17_15h56.51.997,Oddball_task,2022.2.5,60.05825650843395,
target,soundFiles/1200Hz_-3dBFS_3s_44.1kHz.wav',t,1200,0,2,2,3,,,,,,,,,406.077595499999,407.05926490000274,407.06310225001073,t,1,409.5745989999996,0.9130960999900708,,,,,,,,,,,Levi,001,2023-10-17_15h56.51.997,Oddball_task,2022.2.5,60.05825650843395,
standard,soundFiles/1000Hz_-3dBFS_3s_44.1kHz.wav',None,1000,0,3,3,1,,,,,,,,,410.5724750000081,411.5571368999954,411.5557158500102,None,1,414.0859919000068,,414.0711242999969,,,,,,,,,,Levi,001,2023-10-17_15h56.51.997,Oddball_task,2022.2.5,60.05825650843395,
standard,soundFiles/1000Hz_-3dBFS_3s_44.1kHz.wav',None,1000,1,0,4,1,,,,,,,,,415.08717140000954,416.07028159999754,416.0707256499969,None,1,418.5848161000031,,,,,,,,,,,,Levi,001,2023-10-17_15h56.51.997,Oddball_task,2022.2.5,60.05825650843395,
target,soundFiles/1200Hz_-3dBFS_3s_44.1kHz.wav',t,1200,1,1,5,3,,,,,,,,,419.58279840000614,420.5635920000059,420.563071050006,t,1,423.0804716999992,1.1289633999986108,423.0619805000024,,,,,,,,,,Levi,001,2023-10-17_15h56.51.997,Oddball_task,2022.2.5,60.05825650843395,
standard,soundFiles/1000Hz_-3dBFS_3s_44.1kHz.wav',None,1000,1,2,6,0,,,,,,,,,424.07657820000895,425.06133320000663,425.0597222500015,None,1,427.57639349999954,,,,,,,,,,,,Levi,001,2023-10-17_15h56.51.997,Oddball_task,2022.2.5,60.05825650843395,
standard,soundFiles/1000Hz_-3dBFS_3s_44.1kHz.wav',None,1000,1,3,7,2,,,,,,,,,428.57268349999504,429.5577276999975,429.55503394999835,None,1,432.0860068000038,,432.07129469999927,,,,,,,,,,Levi,001,2023-10-17_15h56.51.997,Oddball_task,2022.2.5,60.05825650843395,
,,,,,,,,,,,,,,,,,,,,,,,,433.08516560000135,433.08516560000135,space,9.063401100007468,,,,,,Levi,001,2023-10-17_15h56.51.997,Oddball_task,2022.2.5,60.05825650843395,
standard,soundFiles/1000Hz_-3dBFS_3s_44.1kHz.wav',None,1000,,,,,0,0,0,0,,,,,442.19182950000686,443.15879650000716,443.1616577500041,None,1,,,445.65650260000257,,,,,,,,,,Levi,001,2023-10-17_15h56.51.997,Oddball_task,2022.2.5,60.05825650843395,
target,soundFiles/1200Hz_-3dBFS_3s_44.1kHz.wav',t,1200,,,,,0,1,1,3,,,,,445.69049000000814,446.67276929999935,446.67394395000304,t,1,,0.9970363000029465,,,,,,,,,,,Levi,001,2023-10-17_15h56.51.997,Oddball_task,2022.2.5,60.05825650843395,
standard,soundFiles/1000Hz_-3dBFS_3s_44.1kHz.wav',None,1000,,,,,0,2,2,0,,,,,449.18875220000336,450.17160040000454,450.1698477499973,None,1,,,,,,,,451.1701749000058,,,,,Levi,001,2023-10-17_15h56.51.997,Oddball_task,2022.2.5,60.05825650843395,
target,soundFiles/1200Hz_-3dBFS_3s_44.1kHz.wav',t,1200,,,,,0,3,3,3,,,,,452.6843766999955,453.6680856000021,453.66680245000464,t,1,,0.8655414999957429,456.16398830000253,,,,,,,,,,Levi,001,2023-10-17_15h56.51.997,Oddball_task,2022.2.5,60.05825650843395,
target,soundFiles/1200Hz_-3dBFS_3s_44.1kHz.wav',t,1200,,,,,1,0,4,3,,,,,456.1820465000055,457.16392960000667,457.1651726500073,t,1,,0.9526163999980781,,,,,,,,,,,Levi,001,2023-10-17_15h56.51.997,Oddball_task,2022.2.5,60.05825650843395,
standard,soundFiles/1000Hz_-3dBFS_3s_44.1kHz.wav',None,1000,,,,,1,1,5,1,,,,,459.6767831000034,460.6615473999991,460.66138145001025,None,1,,,463.17537700000685,,,,,,,,,,Levi,001,2023-10-17_15h56.51.997,Oddball_task,2022.2.5,60.05825650843395,
standard,soundFiles/1000Hz_-3dBFS_3s_44.1kHz.wav',None,1000,,,,,1,2,6,0,,,,,463.19135259999894,464.17489300000307,464.17483445000255,None,1,,,,,,,,,,,,,Levi,001,2023-10-17_15h56.51.997,Oddball_task,2022.2.5,60.05825650843395,
target,soundFiles/1200Hz_-3dBFS_3s_44.1kHz.wav',t,1200,,,,,1,3,7,3,,,,,466.6873951000016,467.6712426000013,467.6698141500034,t,1,,0.9025855000072625,,,,,,,,,,,Levi,001,2023-10-17_15h56.51.997,Oddball_task,2022.2.5,60.05825650843395,
standard,soundFiles/1000Hz_-3dBFS_3s_44.1kHz.wav',None,1000,,,,,2,0,8,1,,,,,470.185945899997,471.1677120000095,471.1668591499998,None,1,,,,,,,,,,,,,Levi,001,2023-10-17_15h56.51.997,Oddball_task,2022.2.5,60.05825650843395,
standard,soundFiles/1000Hz_-3dBFS_3s_44.1kHz.wav',None,1000,,,,,2,1,9,0,,,,,473.6805616000056,474.6628824000072,474.6649921500008,None,1,,,477.1631098000071,,,,,,,,,,Levi,001,2023-10-17_15h56.51.997,Oddball_task,2022.2.5,60.05825650843395,
standard,soundFiles/1000Hz_-3dBFS_3s_44.1kHz.wav',None,1000,,,,,2,2,10,1,,,,,477.1773675000004,478.1766052000021,478.1787763499975,None,1,,,,,,,,,,,,,Levi,001,2023-10-17_15h56.51.997,Oddball_task,2022.2.5,60.05825650843395,
standard,soundFiles/1000Hz_-3dBFS_3s_44.1kHz.wav',None,1000,,,,,2,3,11,2,,,,,480.689988099999,481.67540310000186,481.67293735000715,None,1,,,,,,,,,,,,,Levi,001,2023-10-17_15h56.51.997,Oddball_task,2022.2.5,60.05825650843395,
target,soundFiles/1200Hz_-3dBFS_3s_44.1kHz.wav',t,1200,,,,,3,0,12,3,,,,,484.18930090000504,485.1705306000076,485.1711069500103,t,1,,0.8979537999985041,,,,,,,,,,,Levi,001,2023-10-17_15h56.51.997,Oddball_task,2022.2.5,60.05825650843395,
standard,soundFiles/1000Hz_-3dBFS_3s_44.1kHz.wav',None,1000,,,,,3,1,13,2,,,,,487.68391570000676,488.66716599999927,488.66803735000724,None,1,,,491.1641443999979,,,,,,,,,,Levi,001,2023-10-17_15h56.51.997,Oddball_task,2022.2.5,60.05825650843395,
target,soundFiles/1200Hz_-3dBFS_3s_44.1kHz.wav',t,1200,,,,,3,2,14,3,,,,,491.18241300000227,492.16323150000244,492.16605925000624,t,1,,1.0822255999955814,494.6628383000061,,,,,,,,,,Levi,001,2023-10-17_15h56.51.997,Oddball_task,2022.2.5,60.05825650843395,
target,soundFiles/1200Hz_-3dBFS_3s_44.1kHz.wav',t,1200,,,,,3,3,15,3,,,,,494.68006949999835,495.6638268999959,495.66164485000775,t,1,,0.9650531000079354,498.1757731999969,,,,,,,,,,Levi,001,2023-10-17_15h56.51.997,Oddball_task,2022.2.5,60.05825650843395,
target,soundFiles/1200Hz_-3dBFS_3s_44.1kHz.wav',t,1200,,,,,4,0,16,3,,,,,498.19077080000716,499.1765708000021,499.1730679499975,t,1,,0.9876365999953123,,,,,,,,,,,Levi,001,2023-10-17_15h56.51.997,Oddball_task,2022.2.5,60.05825650843395,
standard,soundFiles/1000Hz_-3dBFS_3s_44.1kHz.wav',None,1000,,,,,4,1,17,1,,,,,501.68860069999937,502.67214870000316,502.66990395000323,None,1,,,,,,,,,,,,,Levi,001,2023-10-17_15h56.51.997,Oddball_task,2022.2.5,60.05825650843395,
standard,soundFiles/1000Hz_-3dBFS_3s_44.1kHz.wav',None,1000,,,,,4,2,18,0,,,,,505.185954200002,506.16855460000806,506.1683056499984,None,1,,,,,,,,,,,,,Levi,001,2023-10-17_15h56.51.997,Oddball_task,2022.2.5,60.05825650843395,
standard,soundFiles/1000Hz_-3dBFS_3s_44.1kHz.wav',None,1000,,,,,4,3,19,2,,,,,508.68125809999765,509.66583179999725,509.6643347500009,None,1,,,,,,,,,,,,,Levi,001,2023-10-17_15h56.51.997,Oddball_task,2022.2.5,60.05825650843395,
target,soundFiles/1200Hz_-3dBFS_3s_44.1kHz.wav',t,1200,,,,,5,0,20,3,,,,,512.177727000002,513.1628455000027,513.1635789500084,t,1,,0.8253611999971326,515.6755510000075,,,,,,,,,,Levi,001,2023-10-17_15h56.51.997,Oddball_task,2022.2.5,60.05825650843395,
standard,soundFiles/1000Hz_-3dBFS_3s_44.1kHz.wav',None,1000,,,,,5,1,21,1,,,,,515.6930757000082,516.6751884999976,516.6742451499973,None,1,,,,,,,,,,,,,Levi,001,2023-10-17_15h56.51.997,Oddball_task,2022.2.5,60.05825650843395,
standard,soundFiles/1000Hz_-3dBFS_3s_44.1kHz.wav',None,1000,,,,,5,2,22,1,,,,,519.1905281000072,520.1702712999977,520.1727074500028,None,1,,,,,,,,,,,,,Levi,001,2023-10-17_15h56.51.997,Oddball_task,2022.2.5,60.05825650843395,
standard,soundFiles/1000Hz_-3dBFS_3s_44.1kHz.wav',None,1000,,,,,5,3,23,1,,,,,522.6847472000081,523.6669855000073,523.667794350005,None,1,,,,,,,,,,,,,Levi,001,2023-10-17_15h56.51.997,Oddball_task,2022.2.5,60.05825650843395,
standard,soundFiles/1000Hz_-3dBFS_3s_44.1kHz.wav',None,1000,,,,,6,0,24,2,,,,,526.1835929000081,527.163612400007,527.166326250002,None,1,,,529.6640451999992,,,,,,,,,,Levi,001,2023-10-17_15h56.51.997,Oddball_task,2022.2.5,60.05825650843395,
standard,soundFiles/1000Hz_-3dBFS_3s_44.1kHz.wav',None,1000,,,,,6,1,25,2,,,,,529.6790539000067,530.6621056000004,530.6608070500021,None,1,,,533.1748338000034,,,,,,,,,,Levi,001,2023-10-17_15h56.51.997,Oddball_task,2022.2.5,60.05825650843395,
target,soundFiles/1200Hz_-3dBFS_3s_44.1kHz.wav',t,1200,,,,,6,2,26,3,,,,,533.1919622999994,534.1755583000049,534.1743625500036,t,1,,0.9174344999919413,,,,,,,,,,,Levi,001,2023-10-17_15h56.51.997,Oddball_task,2022.2.5,60.05825650843395,
standard,soundFiles/1000Hz_-3dBFS_3s_44.1kHz.wav',None,1000,,,,,6,3,27,2,,,,,536.6903203999973,537.6705638999993,537.6727369500092,None,1,,,540.1727605000051,,,,,,,,,,Levi,001,2023-10-17_15h56.51.997,Oddball_task,2022.2.5,60.05825650843395,
target,soundFiles/1200Hz_-3dBFS_3s_44.1kHz.wav',t,1200,,,,,7,0,28,3,,,,,540.1849251000094,541.169264199998,541.1684609500022,t,1,,0.9246041000005789,,,,,,,,,,,Levi,001,2023-10-17_15h56.51.997,Oddball_task,2022.2.5,60.05825650843395,
target,soundFiles/1200Hz_-3dBFS_3s_44.1kHz.wav',t,1200,,,,,7,1,29,3,,,,,543.6833426000085,544.6683742000023,544.6637018499983,t,1,,0.977030800000648,,,,,,,,,,,Levi,001,2023-10-17_15h56.51.997,Oddball_task,2022.2.5,60.05825650843395,
standard,soundFiles/1000Hz_-3dBFS_3s_44.1kHz.wav',None,1000,,,,,7,2,30,2,,,,,547.1787954000029,548.1628181999986,548.1662182500091,None,1,,,550.6778257999977,,,,,,,,,,Levi,001,2023-10-17_15h56.51.997,Oddball_task,2022.2.5,60.05825650843395,
standard,soundFiles/1000Hz_-3dBFS_3s_44.1kHz.wav',None,1000,,,,,7,3,31,0,,,,,550.692586899997,551.6751134000078,551.6772829500056,None,1,,,554.1724768999993,,,,,,,,,,Levi,001,2023-10-17_15h56.51.997,Oddball_task,2022.2.5,60.05825650843395,
standard,soundFiles/1000Hz_-3dBFS_3s_44.1kHz.wav',None,1000,,,,,8,0,32,1,,,,,554.1893084000039,555.1739269999962,555.1710661500052,None,1,,,,,,,,,,,,,Levi,001,2023-10-17_15h56.51.997,Oddball_task,2022.2.5,60.05825650843395,
standard,soundFiles/1000Hz_-3dBFS_3s_44.1kHz.wav',None,1000,,,,,8,1,33,2,,,,,557.6862892000063,558.6700794000062,558.6676958499971,None,1,,,,,,,,,,,,,Levi,001,2023-10-17_15h56.51.997,Oddball_task,2022.2.5,60.05825650843395,
target,soundFiles/1200Hz_-3dBFS_3s_44.1kHz.wav',t,1200,,,,,8,2,34,3,,,,,561.1842346000049,562.1664829000074,562.1686254500033,t,1,,0.8229827000031946,,,,,,,,,,,Levi,001,2023-10-17_15h56.51.997,Oddball_task,2022.2.5,60.05825650843395,
standard,soundFiles/1000Hz_-3dBFS_3s_44.1kHz.wav',None,1000,,,,,8,3,35,2,,,,,564.678968200009,565.6645878999989,565.6625693500042,None,1,,,568.1757803000073,,,,,,,,,,Levi,001,2023-10-17_15h56.51.997,Oddball_task,2022.2.5,60.05825650843395,
standard,soundFiles/1000Hz_-3dBFS_3s_44.1kHz.wav',None,1000,,,,,9,0,36,0,,,,,568.1946467000089,569.175985599999,569.1767833499995,None,1,,,,,,,,,,,,,Levi,001,2023-10-17_15h56.51.997,Oddball_task,2022.2.5,60.05825650843395,
standard,soundFiles/1000Hz_-3dBFS_3s_44.1kHz.wav',None,1000,,,,,9,1,37,2,,,,,571.691935099996,572.6739264000062,572.6742530499993,None,1,,,575.1697679000063,,,,,,,,,,Levi,001,2023-10-17_15h56.51.997,Oddball_task,2022.2.5,60.05825650843395,
standard,soundFiles/1000Hz_-3dBFS_3s_44.1kHz.wav',None,1000,,,,,9,2,38,0,,,,,575.1884281000093,576.1682201000076,576.1688509500033,None,1,,,578.6665225000033,,,,,,,,,,Levi,001,2023-10-17_15h56.51.997,Oddball_task,2022.2.5,60.05825650843395,
standard,soundFiles/1000Hz_-3dBFS_3s_44.1kHz.wav',None,1000,,,,,9,3,39,1,,,,,578.6840364000091,579.6689100000076,579.6645422500093,None,1,,,,,,,,,,,,,Levi,001,2023-10-17_15h56.51.997,Oddball_task,2022.2.5,60.05825650843395,
target,soundFiles/1200Hz_-3dBFS_3s_44.1kHz.wav',t,1200,,,,,10,0,40,3,,,,,582.180566199997,583.1615248000016,583.164344850005,t,1,,0.9149491999996826,585.6619826999959,,,,,,,,,,Levi,001,2023-10-17_15h56.51.997,Oddball_task,2022.2.5,60.05825650843395,
standard,soundFiles/1000Hz_-3dBFS_3s_44.1kHz.wav',None,1000,,,,,10,1,41,0,,,,,585.6757667000056,586.6774172000005,586.6775979500031,None,1,,,,,,,,,589.1735139000084,,,,Levi,001,2023-10-17_15h56.51.997,Oddball_task,2022.2.5,60.05825650843395,
standard,soundFiles/1000Hz_-3dBFS_3s_44.1kHz.wav',None,1000,,,,,10,2,42,0,,,,,589.1897052999993,590.1733824999974,590.1730543500104,None,1,,,,,,,,,,,,,Levi,001,2023-10-17_15h56.51.997,Oddball_task,2022.2.5,60.05825650843395,
standard,soundFiles/1000Hz_-3dBFS_3s_44.1kHz.wav',None,1000,,,,,10,3,43,0,,,,,592.6884665999969,593.6688627999974,593.6699677500088,None,1,,,,,,,,,,,,,Levi,001,2023-10-17_15h56.51.997,Oddball_task,2022.2.5,60.05825650843395,
standard,soundFiles/1000Hz_-3dBFS_3s_44.1kHz.wav',None,1000,,,,,11,0,44,0,,,,,596.1855608000042,597.1689516000042,597.1648574500083,None,1,,,,,,,,,,,,,Levi,001,2023-10-17_15h56.51.997,Oddball_task,2022.2.5,60.05825650843395,
target,soundFiles/1200Hz_-3dBFS_3s_44.1kHz.wav',t,1200,,,,,11,1,45,3,,,,,599.6796166999993,600.6633625999966,600.6624197500001,t,1,,0.81311000000278,603.1782097999967,,,,,,,,,,Levi,001,2023-10-17_15h56.51.997,Oddball_task,2022.2.5,60.05825650843395,
standard,soundFiles/1000Hz_-3dBFS_3s_44.1kHz.wav',None,1000,,,,,11,2,46,0,,,,,603.1957899999979,604.1760705000052,604.1767840500048,None,1,,,,,,,,,,,,,Levi,001,2023-10-17_15h56.51.997,Oddball_task,2022.2.5,60.05825650843395,
standard,soundFiles/1000Hz_-3dBFS_3s_44.1kHz.wav',None,1000,,,,,11,3,47,2,,,,,606.6901915000053,607.6725568999973,607.6740873500036,None,1,,,,,,,,,,,,,Levi,001,2023-10-17_15h56.51.997,Oddball_task,2022.2.5,60.05825650843395,
standard,soundFiles/1000Hz_-3dBFS_3s_44.1kHz.wav',None,1000,,,,,12,0,48,2,,,,,610.188127100002,611.1684953000076,611.1704292500013,None,1,,,,,,,,,,,,,Levi,001,2023-10-17_15h56.51.997,Oddball_task,2022.2.5,60.05825650843395,
target,soundFiles/1200Hz_-3dBFS_3s_44.1kHz.wav',t,1200,,,,,12,1,49,3,,,,,613.6827386000077,614.6669958999992,614.6659004500049,t,1,,0.8815009999962058,617.1631005999952,,,,,,,,,,Levi,001,2023-10-17_15h56.51.997,Oddball_task,2022.2.5,60.05825650843395,
standard,soundFiles/1000Hz_-3dBFS_3s_44.1kHz.wav',None,1000,,,,,12,2,50,2,,,,,617.1813034000079,618.1654939,618.1637839499978,None,1,,,620.6813865000004,,,,,,,,,,Levi,001,2023-10-17_15h56.51.997,Oddball_task,2022.2.5,60.05825650843395,
target,soundFiles/1200Hz_-3dBFS_3s_44.1kHz.wav',t,1200,,,,,12,3,51,3,,,,,620.6936885000032,621.6770773000026,621.6752641500003,t,1,,0.8311408000008669,,,,,,,,,,,Levi,001,2023-10-17_15h56.51.997,Oddball_task,2022.2.5,60.05825650843395,
standard,soundFiles/1000Hz_-3dBFS_3s_44.1kHz.wav',None,1000,,,,,13,0,52,1,,,,,624.1932735000009,625.1735458000039,625.1737781500066,None,1,,,,,,,,,,,,,Levi,001,2023-10-17_15h56.51.997,Oddball_task,2022.2.5,60.05825650843395,
target,soundFiles/1200Hz_-3dBFS_3s_44.1kHz.wav',t,1200,,,,,13,1,53,3,,,,,627.6881941000029,628.6687420000089,628.6699472499982,t,1,,0.9358639999991283,631.1664571000001,,,,,,,,,,Levi,001,2023-10-17_15h56.51.997,Oddball_task,2022.2.5,60.05825650843395,
standard,soundFiles/1000Hz_-3dBFS_3s_44.1kHz.wav',None,1000,,,,,13,2,54,1,,,,,631.1870768000081,632.1667103000073,632.1673918500106,None,1,,,,,,,,,,,,,Levi,001,2023-10-17_15h56.51.997,Oddball_task,2022.2.5,60.05825650843395,
standard,soundFiles/1000Hz_-3dBFS_3s_44.1kHz.wav',None,1000,,,,,13,3,55,2,,,,,634.6815120999963,635.6640432999993,635.662461649999,None,1,,,,,,,,,,,,,Levi,001,2023-10-17_15h56.51.997,Oddball_task,2022.2.5,60.05825650843395,
standard,soundFiles/1000Hz_-3dBFS_3s_44.1kHz.wav',None,1000,,,,,14,0,56,2,,,,,638.1789458999992,639.1757920000091,639.1775057499996,None,1,,,641.676191599996,,,,,,,,,,Levi,001,2023-10-17_15h56.51.997,Oddball_task,2022.2.5,60.05825650843395,
standard,soundFiles/1000Hz_-3dBFS_3s_44.1kHz.wav',None,1000,,,,,14,1,57,2,,,,,641.6926625000051,642.6729990000022,642.6736509499984,None,1,,,,,,,,,,,,,Levi,001,2023-10-17_15h56.51.997,Oddball_task,2022.2.5,60.05825650843395,
standard,soundFiles/1000Hz_-3dBFS_3s_44.1kHz.wav',None,1000,,,,,14,2,58,1,,,,,645.1894449999963,646.170423100004,646.1715589500033,None,1,,,,,,,,,,,,,Levi,001,2023-10-17_15h56.51.997,Oddball_task,2022.2.5,60.05825650843395,
standard,soundFiles/1000Hz_-3dBFS_3s_44.1kHz.wav',None,1000,,,,,14,3,59,1,,,,,648.6852645000035,649.6665643000015,649.6676207500074,None,1,,,652.1645884000027,,,,,,,,,,Levi,001,2023-10-17_15h56.51.997,Oddball_task,2022.2.5,60.05825650843395,
standard,soundFiles/1000Hz_-3dBFS_3s_44.1kHz.wav',None,1000,,,,,15,0,60,1,,,,,652.1805910999974,653.1628291000088,653.1644475500012,None,1,,,,,,,,,,,,,Levi,001,2023-10-17_15h56.51.997,Oddball_task,2022.2.5,60.05825650843395,
standard,soundFiles/1000Hz_-3dBFS_3s_44.1kHz.wav',None,1000,,,,,15,1,61,2,,,,,655.6775198999967,656.6778477000043,656.6785068499972,None,1,,,,,,,,,,,,,Levi,001,2023-10-17_15h56.51.997,Oddball_task,2022.2.5,60.05825650843395,
standard,soundFiles/1000Hz_-3dBFS_3s_44.1kHz.wav',None,1000,,,,,15,2,62,0,,,,,659.1922498000058,660.1760151000053,660.174553850005,None,1,,,,,,,,,,,,,Levi,001,2023-10-17_15h56.51.997,Oddball_task,2022.2.5,60.05825650843395,
standard,soundFiles/1000Hz_-3dBFS_3s_44.1kHz.wav',None,1000,,,,,15,3,63,0,,,,,662.6875365000014,663.6698694000079,663.6705563500087,None,1,,,,,,,,,,,,,Levi,001,2023-10-17_15h56.51.997,Oddball_task,2022.2.5,60.05825650843395,
standard,soundFiles/1000Hz_-3dBFS_3s_44.1kHz.wav',None,1000,,,,,16,0,64,1,,,,,666.1859043000004,667.1693238000007,667.1663619499974,None,1,,,,,,,,668.1682151999994,,,,,Levi,001,2023-10-17_15h56.51.997,Oddball_task,2022.2.5,60.05825650843395,
standard,soundFiles/1000Hz_-3dBFS_3s_44.1kHz.wav',None,1000,,,,,16,1,65,1,,,,,669.6834059999965,670.6645473999961,670.665635350009,None,1,,,,,,,,,,,,,Levi,001,2023-10-17_15h56.51.997,Oddball_task,2022.2.5,60.05825650843395,
standard,soundFiles/1000Hz_-3dBFS_3s_44.1kHz.wav',None,1000,,,,,16,2,66,2,,,,,673.1793164999981,674.1768439000007,674.1812182500086,None,1,,,,,,,,,,,,,Levi,001,2023-10-17_15h56.51.997,Oddball_task,2022.2.5,60.05825650843395,
standard,soundFiles/1000Hz_-3dBFS_3s_44.1kHz.wav',None,1000,,,,,16,3,67,1,,,,,676.6928571000026,677.674932000009,677.6741005500022,None,1,,,,,,,,,,,,,Levi,001,2023-10-17_15h56.51.997,Oddball_task,2022.2.5,60.05825650843395,
standard,soundFiles/1000Hz_-3dBFS_3s_44.1kHz.wav',None,1000,,,,,17,0,68,0,,,,,680.1896894000092,681.1751407999982,681.1698349500017,None,1,,,,,,,,,,,,,Levi,001,2023-10-17_15h56.51.997,Oddball_task,2022.2.5,60.05825650843395,
standard,soundFiles/1000Hz_-3dBFS_3s_44.1kHz.wav',None,1000,,,,,17,1,69,1,,,,,683.6873887999973,684.6707702999993,684.6674463500036,None,1,,,,,,,,,,,,,Levi,001,2023-10-17_15h56.51.997,Oddball_task,2022.2.5,60.05825650843395,
standard,soundFiles/1000Hz_-3dBFS_3s_44.1kHz.wav',None,1000,,,,,17,2,70,0,,,,,687.1859905000019,688.1637512000016,688.1654768500099,None,1,,,,,,,,,,,,,Levi,001,2023-10-17_15h56.51.997,Oddball_task,2022.2.5,60.05825650843395,
standard,soundFiles/1000Hz_-3dBFS_3s_44.1kHz.wav',None,1000,,,,,17,3,71,0,,,,,690.6786549999961,691.6611088000063,691.6617071500019,None,1,,,694.176520699999,,,,,,,,,,Levi,001,2023-10-17_15h56.51.997,Oddball_task,2022.2.5,60.05825650843395,
standard,soundFiles/1000Hz_-3dBFS_3s_44.1kHz.wav',None,1000,,,,,18,0,72,1,,,,,694.1921432999952,695.1767737000046,695.1742773500097,None,1,,,,,,,,,,,,,Levi,001,2023-10-17_15h56.51.997,Oddball_task,2022.2.5,60.05825650843395,
standard,soundFiles/1000Hz_-3dBFS_3s_44.1kHz.wav',None,1000,,,,,18,1,73,1,,,,,697.6913917000056,698.6722635000042,698.6709314499982,None,1,,,,,,,,,,,,,Levi,001,2023-10-17_15h56.51.997,Oddball_task,2022.2.5,60.05825650843395,
target,soundFiles/1200Hz_-3dBFS_3s_44.1kHz.wav',t,1200,,,,,18,2,74,3,,,,,701.1847875000094,702.1680617999955,702.1688308500103,t,1,,0.8851005000033183,,,,,,,,,,,Levi,001,2023-10-17_15h56.51.997,Oddball_task,2022.2.5,60.05825650843395,
standard,soundFiles/1000Hz_-3dBFS_3s_44.1kHz.wav',None,1000,,,,,18,3,75,2,,,,,704.6828957999969,705.6641279000032,705.6668398499984,None,1,,,,,,,,,,,,,Levi,001,2023-10-17_15h56.51.997,Oddball_task,2022.2.5,60.05825650843395,
standard,soundFiles/1000Hz_-3dBFS_3s_44.1kHz.wav',None,1000,,,,,19,0,76,1,,,,,708.1783013999957,709.1621563000081,709.1612232499989,None,1,,,711.6745818000054,,,,,710.1650721000042,,,,,Levi,001,2023-10-17_15h56.51.997,Oddball_task,2022.2.5,60.05825650843395,
standard,soundFiles/1000Hz_-3dBFS_3s_44.1kHz.wav',None,1000,,,,,19,1,77,0,,,,,711.6943100000062,712.6760253999964,712.6772660500079,None,1,,,,,,,,,,,,,Levi,001,2023-10-17_15h56.51.997,Oddball_task,2022.2.5,60.05825650843395,
standard,soundFiles/1000Hz_-3dBFS_3s_44.1kHz.wav',None,1000,,,,,19,2,78,1,,,,,715.189942500001,716.1705279000016,716.1735585500079,None,1,,,,,,,,,,,,,Levi,001,2023-10-17_15h56.51.997,Oddball_task,2022.2.5,60.05825650843395,
standard,soundFiles/1000Hz_-3dBFS_3s_44.1kHz.wav',None,1000,,,,,19,3,79,0,,,,,718.6863584999955,719.6670048000087,719.6690367500065,None,1,,,,,,,,,,,,,Levi,001,2023-10-17_15h56.51.997,Oddball_task,2022.2.5,60.05825650843395,
standard,soundFiles/1000Hz_-3dBFS_3s_44.1kHz.wav',None,1000,,,,,20,0,80,1,,,,,722.1836225000006,723.1666628000094,723.1682572500082,None,1,,,,,,,,,,,,,Levi,001,2023-10-17_15h56.51.997,Oddball_task,2022.2.5,60.05825650843395,
standard,soundFiles/1000Hz_-3dBFS_3s_44.1kHz.wav',None,1000,,,,,20,1,81,2,,,,,725.6806123999995,726.6612602999958,726.66157885,None,1,,,729.1770237000019,,,,,,,,,,Levi,001,2023-10-17_15h56.51.997,Oddball_task,2022.2.5,60.05825650843395,
standard,soundFiles/1000Hz_-3dBFS_3s_44.1kHz.wav',None,1000,,,,,20,2,82,0,,,,,729.1927660000074,730.1745460999955,730.1762370500015,None,1,,,,,,,,,,,,,Levi,001,2023-10-17_15h56.51.997,Oddball_task,2022.2.5,60.05825650843395,
standard,soundFiles/1000Hz_-3dBFS_3s_44.1kHz.wav',None,1000,,,,,20,3,83,1,,,,,732.6899828000023,733.6720784000063,733.672947749999,None,1,,,,,,,,,,,,,Levi,001,2023-10-17_15h56.51.997,Oddball_task,2022.2.5,60.05825650843395,
standard,soundFiles/1000Hz_-3dBFS_3s_44.1kHz.wav',None,1000,,,,,21,0,84,2,,,,,736.1866110999981,737.1690361000074,737.1678956500051,None,1,,,739.6667622999958,,,,,,,,,,Levi,001,2023-10-17_15h56.51.997,Oddball_task,2022.2.5,60.05825650843395,
standard,soundFiles/1000Hz_-3dBFS_3s_44.1kHz.wav',None,1000,,,,,21,1,85,2,,,,,739.6853086000046,740.665737999996,740.667112350007,None,1,,,,,,,,,,,,,Levi,001,2023-10-17_15h56.51.997,Oddball_task,2022.2.5,60.05825650843395,
standard,soundFiles/1000Hz_-3dBFS_3s_44.1kHz.wav',None,1000,,,,,21,2,86,1,,,,,743.1803928000008,744.1638464999996,744.1626207500027,None,1,,,746.6770684000076,,,,,,,,,,Levi,001,2023-10-17_15h56.51.997,Oddball_task,2022.2.5,60.05825650843395,
target,soundFiles/1200Hz_-3dBFS_3s_44.1kHz.wav',t,1200,,,,,21,3,87,3,,,,,746.6936872000078,747.6743234000023,747.6749631500076,t,1,,0.7858806000003824,750.1720472000015,,,,,,,,,,Levi,001,2023-10-17_15h56.51.997,Oddball_task,2022.2.5,60.05825650843395,
target,soundFiles/1200Hz_-3dBFS_3s_44.1kHz.wav',t,1200,,,,,22,0,88,3,,,,,750.1907426999969,751.172745600008,751.1715826500091,t,1,,1.1278802000015276,,,,,,,,,,,Levi,001,2023-10-17_15h56.51.997,Oddball_task,2022.2.5,60.05825650843395,
standard,soundFiles/1000Hz_-3dBFS_3s_44.1kHz.wav',None,1000,,,,,22,1,89,0,,,,,753.6864760000026,754.6678650999966,754.6711903500051,None,1,,,,,,,,,,,,,Levi,001,2023-10-17_15h56.51.997,Oddball_task,2022.2.5,60.05825650843395,
standard,soundFiles/1000Hz_-3dBFS_3s_44.1kHz.wav',None,1000,,,,,22,2,90,0,,,,,757.1842719999986,758.1639006000041,758.1643199500046,None,1,,,760.6652992000018,,,,,,,,,,Levi,001,2023-10-17_15h56.51.997,Oddball_task,2022.2.5,60.05825650843395,
standard,soundFiles/1000Hz_-3dBFS_3s_44.1kHz.wav',None,1000,,,,,22,3,91,2,,,,,760.680099899997,761.6612411999959,761.6630040499964,None,1,,,764.1806856000039,,,,,,,,,,Levi,001,2023-10-17_15h56.51.997,Oddball_task,2022.2.5,60.05825650843395,
standard,soundFiles/1000Hz_-3dBFS_3s_44.1kHz.wav',None,1000,,,,,23,0,92,1,,,,,764.1920840999956,765.1774795000092,765.1760857499991,None,1,,,,,,,,,,,,,Levi,001,2023-10-17_15h56.51.997,Oddball_task,2022.2.5,60.05825650843395,
standard,soundFiles/1000Hz_-3dBFS_3s_44.1kHz.wav',None,1000,,,,,23,1,93,2,,,,,767.691169800004,768.6722133000003,768.6711376499967,None,1,,,,,,,,,,,,,Levi,001,2023-10-17_15h56.51.997,Oddball_task,2022.2.5,60.05825650843395,
target,soundFiles/1200Hz_-3dBFS_3s_44.1kHz.wav',t,1200,,,,,23,2,94,3,,,,,771.1854989999993,772.1684572000086,772.1698734500038,t,1,,0.7957299000117928,,,,,,,,,,,Levi,001,2023-10-17_15h56.51.997,Oddball_task,2022.2.5,60.05825650843395,
standard,soundFiles/1000Hz_-3dBFS_3s_44.1kHz.wav',None,1000,,,,,23,3,95,1,,,,,774.6849006999983,775.6665338000021,775.6647583500104,None,1,,,778.1648371000047,,,,,,,,,,Levi,001,2023-10-17_15h56.51.997,Oddball_task,2022.2.5,60.05825650843395,
target,soundFiles/1200Hz_-3dBFS_3s_44.1kHz.wav',t,1200,,,,,24,0,96,3,,,,,778.1791045999998,779.1625504999975,779.1635671500059,t,1,,0.90591059999133,781.6773894000071,,,,,,,,,,Levi,001,2023-10-17_15h56.51.997,Oddball_task,2022.2.5,60.05825650843395,
standard,soundFiles/1000Hz_-3dBFS_3s_44.1kHz.wav',None,1000,,,,,24,1,97,2,,,,,781.6968682000006,782.6775174000068,782.6748680499965,None,1,,,,,,,,,,,,,Levi,001,2023-10-17_15h56.51.997,Oddball_task,2022.2.5,60.05825650843395,
standard,soundFiles/1000Hz_-3dBFS_3s_44.1kHz.wav',None,1000,,,,,24,2,98,2,,,,,785.1936728000001,786.1760036000051,786.1732017499977,None,1,,,,,,,,,,,,,Levi,001,2023-10-17_15h56.51.997,Oddball_task,2022.2.5,60.05825650843395,
target,soundFiles/1200Hz_-3dBFS_3s_44.1kHz.wav',t,1200,,,,,24,3,99,3,,,,,788.688605000003,789.6705966000009,789.6693561500084,t,1,,0.8705026999959955,,,,,,,,,,,Levi,001,2023-10-17_15h56.51.997,Oddball_task,2022.2.5,60.05825650843395,
target,soundFiles/1200Hz_-3dBFS_3s_44.1kHz.wav',t,1200,,,,,25,0,100,3,,,,,792.1843563000002,793.1658687000017,793.1660991500045,t,1,,0.91922519999207,,,,,,,,,,,Levi,001,2023-10-17_15h56.51.997,Oddball_task,2022.2.5,60.05825650843395,
standard,soundFiles/1000Hz_-3dBFS_3s_44.1kHz.wav',None,1000,,,,,25,1,101,1,,,,,795.6809824000084,796.6637180999969,796.6624014500063,None,1,,,,,,,,,,,,,Levi,001,2023-10-17_15h56.51.997,Oddball_task,2022.2.5,60.05825650843395,
target,soundFiles/1200Hz_-3dBFS_3s_44.1kHz.wav',t,1200,,,,,25,2,102,3,,,,,799.1781488999986,800.1764048000041,800.177292550006,t,1,,1.2130489999981364,,,,,,,,,,,Levi,001,2023-10-17_15h56.51.997,Oddball_task,2022.2.5,60.05825650843395,
standard,soundFiles/1000Hz_-3dBFS_3s_44.1kHz.wav',None,1000,,,,,25,3,103,2,,,,,802.6899236000027,803.674159000002,803.672297849998,None,1,,,,,,,,,,,,,Levi,001,2023-10-17_15h56.51.997,Oddball_task,2022.2.5,60.05825650843395,
standard,soundFiles/1000Hz_-3dBFS_3s_44.1kHz.wav',None,1000,,,,,26,0,104,0,,,,,806.1862354000041,807.1704190000019,807.169916050008,None,1,,,,,,,,,,,,,Levi,001,2023-10-17_15h56.51.997,Oddball_task,2022.2.5,60.05825650843395,
standard,soundFiles/1000Hz_-3dBFS_3s_44.1kHz.wav',None,1000,,,,,26,1,105,0,,,,,809.6832681000087,810.6673033999978,810.6656810500077,None,1,,,,,,,,,,,,,Levi,001,2023-10-17_15h56.51.997,Oddball_task,2022.2.5,60.05825650843395,
standard,soundFiles/1000Hz_-3dBFS_3s_44.1kHz.wav',None,1000,,,,,26,2,106,0,,,,,813.1819002999982,814.1653710999963,814.1653937500029,None,1,,,816.6769402000064,,,,,,,,,,Levi,001,2023-10-17_15h56.51.997,Oddball_task,2022.2.5,60.05825650843395,
standard,soundFiles/1000Hz_-3dBFS_3s_44.1kHz.wav',None,1000,,,,,26,3,107,0,,,,,816.6950694999978,817.6754912000033,817.679283250001,None,1,,,820.1755516999983,,,,,,,,,,Levi,001,2023-10-17_15h56.51.997,Oddball_task,2022.2.5,60.05825650843395,
standard,soundFiles/1000Hz_-3dBFS_3s_44.1kHz.wav',None,1000,,,,,27,0,108,2,,,,,820.1916578000091,821.1727735000022,821.1738901500008,None,1,,,,,,,,,,,,,Levi,001,2023-10-17_15h56.51.997,Oddball_task,2022.2.5,60.05825650843395,
standard,soundFiles/1000Hz_-3dBFS_3s_44.1kHz.wav',None,1000,,,,,27,1,109,1,,,,,823.6894443000056,824.6702268000081,824.6714039500017,None,1,,,,,,,,,,,,,Levi,001,2023-10-17_15h56.51.997,Oddball_task,2022.2.5,60.05825650843395,
target,soundFiles/1200Hz_-3dBFS_3s_44.1kHz.wav',t,1200,,,,,27,2,110,3,,,,,827.1862700000056,828.1662083999981,828.1679575499962,t,1,,0.8396573000063654,830.6632994999964,,,,,,,,,,Levi,001,2023-10-17_15h56.51.997,Oddball_task,2022.2.5,60.05825650843395,
standard,soundFiles/1000Hz_-3dBFS_3s_44.1kHz.wav',None,1000,,,,,27,3,111,2,,,,,830.681797199999,831.6626641000039,831.6646228499973,None,1,,,,,,,,,,,,,Levi,001,2023-10-17_15h56.51.997,Oddball_task,2022.2.5,60.05825650843395,
standard,soundFiles/1000Hz_-3dBFS_3s_44.1kHz.wav',None,1000,,,,,28,0,112,0,,,,,834.1776753000013,835.1610529000027,835.161235650006,None,1,,,837.6751403000089,,,,,,,,,,Levi,001,2023-10-17_15h56.51.997,Oddball_task,2022.2.5,60.05825650843395,
standard,soundFiles/1000Hz_-3dBFS_3s_44.1kHz.wav',None,1000,,,,,28,1,113,2,,,,,837.6901404999953,838.6745749999973,838.673136949999,None,1,,,,,,,,,,,,,Levi,001,2023-10-17_15h56.51.997,Oddball_task,2022.2.5,60.05825650843395,
target,soundFiles/1200Hz_-3dBFS_3s_44.1kHz.wav',t,1200,,,,,28,2,114,3,,,,,841.1870881000068,842.1710764000018,842.1696991500008,t,1,,0.881202000004123,,,,,,,,,,,Levi,001,2023-10-17_15h56.51.997,Oddball_task,2022.2.5,60.05825650843395,
standard,soundFiles/1000Hz_-3dBFS_3s_44.1kHz.wav',None,1000,,,,,28,3,115,0,,,,,844.6903257000085,845.6664542000071,845.6688310499973,None,1,,,848.1650670999952,,,,,,,,,,Levi,001,2023-10-17_15h56.51.997,Oddball_task,2022.2.5,60.05825650843395,
standard,soundFiles/1000Hz_-3dBFS_3s_44.1kHz.wav',None,1000,,,,,29,0,116,2,,,,,848.1805171000015,849.163398100005,849.1645273499977,None,1,,,851.6628187000024,,,,,,,,,,Levi,001,2023-10-17_15h56.51.997,Oddball_task,2022.2.5,60.05825650843395,
target,soundFiles/1200Hz_-3dBFS_3s_44.1kHz.wav',t,1200,,,,,29,1,117,3,,,,,851.6803826999967,852.679553000009,852.6779406500078,t,1,,0.7974284999945667,,,,,,,,,,,Levi,001,2023-10-17_15h56.51.997,Oddball_task,2022.2.5,60.05825650843395,
target,soundFiles/1200Hz_-3dBFS_3s_44.1kHz.wav',t,1200,,,,,29,2,118,3,,,,,855.1924976000009,856.1753516000026,856.17288995001,t,1,,0.8767460999952164,,,,,,,,,,,Levi,001,2023-10-17_15h56.51.997,Oddball_task,2022.2.5,60.05825650843395,
standard,soundFiles/1000Hz_-3dBFS_3s_44.1kHz.wav',None,1000,,,,,29,3,119,0,,,,,858.688737000004,859.6730696000013,859.6705184499966,None,1,,,,,,,,,,,,,Levi,001,2023-10-17_15h56.51.997,Oddball_task,2022.2.5,60.05825650843395,
target,soundFiles/1200Hz_-3dBFS_3s_44.1kHz.wav',t,1200,,,,,30,0,120,3,,,,,862.1858480000083,863.1669356000057,863.1663373499993,t,1,,0.7978735000069719,865.664311200002,,,,,,,,,,Levi,001,2023-10-17_15h56.51.997,Oddball_task,2022.2.5,60.05825650843395,
standard,soundFiles/1000Hz_-3dBFS_3s_44.1kHz.wav',None,1000,,,,,30,1,121,2,,,,,865.6832995000004,866.6634383000055,866.6645206500049,None,1,,,,,,,,,,,,,Levi,001,2023-10-17_15h56.51.997,Oddball_task,2022.2.5,60.05825650843395,
standard,soundFiles/1000Hz_-3dBFS_3s_44.1kHz.wav',None,1000,,,,,30,2,122,2,,,,,869.1786758999951,870.1781754999975,870.1790549500089,None,1,,,,,,,,,,,,,Levi,001,2023-10-17_15h56.51.997,Oddball_task,2022.2.5,60.05825650843395,
standard,soundFiles/1000Hz_-3dBFS_3s_44.1kHz.wav',None,1000,,,,,30,3,123,1,,,,,872.6933233000018,873.6756079000043,873.6742922500067,None,1,,,,,,,,,,,,,Levi,001,2023-10-17_15h56.51.997,Oddball_task,2022.2.5,60.05825650843395,
standard,soundFiles/1000Hz_-3dBFS_3s_44.1kHz.wav',None,1000,,,,,31,0,124,0,,,,,876.1894734999951,877.1720889999997,877.1703791499982,None,1,,,,,,,,878.1710569999996,,,,,Levi,001,2023-10-17_15h56.51.997,Oddball_task,2022.2.5,60.05825650843395,
target,soundFiles/1200Hz_-3dBFS_3s_44.1kHz.wav',t,1200,,,,,31,1,125,3,,,,,879.6862300000066,880.6683235000091,880.6667927500035,t,1,,0.8559346999973059,,,,,,,,,,,Levi,001,2023-10-17_15h56.51.997,Oddball_task,2022.2.5,60.05825650843395,
standard,soundFiles/1000Hz_-3dBFS_3s_44.1kHz.wav',None,1000,,,,,31,2,126,1,,,,,883.1811987999972,884.1673633000028,884.1638419500028,None,1,,,,,,,,,,,,,Levi,001,2023-10-17_15h56.51.997,Oddball_task,2022.2.5,60.05825650843395,
standard,soundFiles/1000Hz_-3dBFS_3s_44.1kHz.wav',None,1000,,,,,31,3,127,1,,,,,886.6789217000041,887.6619347000087,887.6605477500067,None,1,,,890.1748943999992,,,,,,,,,,Levi,001,2023-10-17_15h56.51.997,Oddball_task,2022.2.5,60.05825650843395,
target,soundFiles/1200Hz_-3dBFS_3s_44.1kHz.wav',t,1200,,,,,32,0,128,3,,,,,890.1932854000042,891.1735776999994,891.1749583500001,t,1,,0.8331208000017796,893.6727176999993,,,,,,,,,,Levi,001,2023-10-17_15h56.51.997,Oddball_task,2022.2.5,60.05825650843395,
standard,soundFiles/1000Hz_-3dBFS_3s_44.1kHz.wav',None,1000,,,,,32,1,129,2,,,,,893.6910249000066,894.6704986999976,894.6721993500047,None,1,,,897.1686450999987,,,,,,,,,,Levi,001,2023-10-17_15h56.51.997,Oddball_task,2022.2.5,60.05825650843395,
standard,soundFiles/1000Hz_-3dBFS_3s_44.1kHz.wav',None,1000,,,,,32,2,130,0,,,,,897.1869003000029,898.1671654999955,898.1685205500049,None,1,,,,,,,,,,,,,Levi,001,2023-10-17_15h56.51.997,Oddball_task,2022.2.5,60.05825650843395,
target,soundFiles/1200Hz_-3dBFS_3s_44.1kHz.wav',t,1200,,,,,32,3,131,3,,,,,900.6815390999982,901.6660961000016,901.6641930499987,t,1,,1.034355299998424,,,,,,,,,,,Levi,001,2023-10-17_15h56.51.997,Oddball_task,2022.2.5,60.05825650843395,
standard,soundFiles/1000Hz_-3dBFS_3s_44.1kHz.wav',None,1000,,,,,33,0,132,2,,,,,904.1798435000092,905.160798500001,905.1620901500079,None,1,,,907.6582469999994,,,,,,,,,,Levi,001,2023-10-17_15h56.51.997,Oddball_task,2022.2.5,60.05825650843395,
standard,soundFiles/1000Hz_-3dBFS_3s_44.1kHz.wav',None,1000,,,,,33,1,133,2,,,,,907.6932437000069,908.6748683000042,908.674842550006,None,1,,,,,,,,,,,,,Levi,001,2023-10-17_15h56.51.997,Oddball_task,2022.2.5,60.05825650843395,
target,soundFiles/1200Hz_-3dBFS_3s_44.1kHz.wav',t,1200,,,,,33,2,134,3,,,,,911.1884490000084,912.1726422000065,912.1706275499979,t,1,,0.9455632000026526,914.6682256000058,,,,,,,,,,Levi,001,2023-10-17_15h56.51.997,Oddball_task,2022.2.5,60.05825650843395,
standard,soundFiles/1000Hz_-3dBFS_3s_44.1kHz.wav',None,1000,,,,,33,3,135,1,,,,,914.6890279000072,915.6688273000036,915.6692579500028,None,1,,,918.1659623000014,,,,,,,,,,Levi,001,2023-10-17_15h56.51.997,Oddball_task,2022.2.5,60.05825650843395,
target,soundFiles/1200Hz_-3dBFS_3s_44.1kHz.wav',t,1200,,,,,34,0,136,3,,,,,918.1847928000061,919.1658883000055,919.1648767500097,t,1,,0.9192746000044281,,,,,,,,,,,Levi,001,2023-10-17_15h56.51.997,Oddball_task,2022.2.5,60.05825650843395,
target,soundFiles/1200Hz_-3dBFS_3s_44.1kHz.wav',t,1200,,,,,34,1,137,3,,,,,921.6803445999976,922.6624273000052,922.6612509500061,t,1,,1.0302512999915052,925.1758420999977,,,,,,,,,,Levi,001,2023-10-17_15h56.51.997,Oddball_task,2022.2.5,60.05825650843395,
standard,soundFiles/1000Hz_-3dBFS_3s_44.1kHz.wav',None,1000,,,,,34,2,138,1,,,,,925.1936216000031,926.1741160000092,926.1772567500099,None,1,,,928.6740745999996,,,,,,,,,,Levi,001,2023-10-17_15h56.51.997,Oddball_task,2022.2.5,60.05825650843395,
standard,soundFiles/1000Hz_-3dBFS_3s_44.1kHz.wav',None,1000,,,,,34,3,139,1,,,,,928.6897346000042,929.6713784000021,929.6725691499975,None,1,,,932.1684141000005,,,,,,,,,,Levi,001,2023-10-17_15h56.51.997,Oddball_task,2022.2.5,60.05825650843395,
standard,soundFiles/1000Hz_-3dBFS_3s_44.1kHz.wav',None,1000,,,,,35,0,140,1,,,,,932.1896502000018,933.1704952,933.1694508500019,None,1,,,,,,,,,,,,,Levi,001,2023-10-17_15h56.51.997,Oddball_task,2022.2.5,60.05825650843395,
target,soundFiles/1200Hz_-3dBFS_3s_44.1kHz.wav',t,1200,,,,,35,1,141,3,,,,,935.6830027999968,936.6654042000009,936.6642571500066,t,1,,1.0909726999962004,,,,,,,,,,,Levi,001,2023-10-17_15h56.51.997,Oddball_task,2022.2.5,60.05825650843395,
standard,soundFiles/1000Hz_-3dBFS_3s_44.1kHz.wav',None,1000,,,,,35,2,142,0,,,,,939.180085400003,940.1617506000039,940.1628052500106,None,1,,,942.677081700007,,,,,,,,,,Levi,001,2023-10-17_15h56.51.997,Oddball_task,2022.2.5,60.05825650843395,
target,soundFiles/1200Hz_-3dBFS_3s_44.1kHz.wav',t,1200,,,,,35,3,143,3,,,,,942.6932090000046,943.675276599999,943.6761472500017,t,1,,0.8902792000008048,946.1724394000048,,,,,,,,,,Levi,001,2023-10-17_15h56.51.997,Oddball_task,2022.2.5,60.05825650843395,
standard,soundFiles/1000Hz_-3dBFS_3s_44.1kHz.wav',None,1000,,,,,36,0,144,1,,,,,946.1907274999976,947.1712031000061,947.1733957500052,None,1,,,949.6691601000057,,,,,,,,,,Levi,001,2023-10-17_15h56.51.997,Oddball_task,2022.2.5,60.05825650843395,
standard,soundFiles/1000Hz_-3dBFS_3s_44.1kHz.wav',None,1000,,,,,36,1,145,2,,,,,949.6873323000036,950.6678704000078,950.6696754500095,None,1,,,953.1679108999961,,,,,,,,,,Levi,001,2023-10-17_15h56.51.997,Oddball_task,2022.2.5,60.05825650843395,
standard,soundFiles/1000Hz_-3dBFS_3s_44.1kHz.wav',None,1000,,,,,36,2,146,0,,,,,953.1825850000023,954.1648243999953,954.1669442500075,None,1,,,,,,,,,,,,,Levi,001,2023-10-17_15h56.51.997,Oddball_task,2022.2.5,60.05825650843395,
target,soundFiles/1200Hz_-3dBFS_3s_44.1kHz.wav',t,1200,,,,,36,3,147,3,,,,,956.6792346000002,957.6630772000062,957.6637996500009,t,1,,0.8770456000056583,,,,,,,,,,,Levi,001,2023-10-17_15h56.51.997,Oddball_task,2022.2.5,60.05825650843395,
standard,soundFiles/1000Hz_-3dBFS_3s_44.1kHz.wav',None,1000,,,,,37,0,148,2,,,,,960.1758445000014,961.175690700009,961.1771576499974,None,1,,,963.6740798999963,,,,,,963.6740798999963,,,,Levi,001,2023-10-17_15h56.51.997,Oddball_task,2022.2.5,60.05825650843395,
standard,soundFiles/1000Hz_-3dBFS_3s_44.1kHz.wav',None,1000,,,,,37,1,149,2,,,,,963.6740798999963,964.6733898000093,964.6722641500033,None,1,,,,,,,,,,,,,Levi,001,2023-10-17_15h56.51.997,Oddball_task,2022.2.5,60.05825650843395,
standard,soundFiles/1000Hz_-3dBFS_3s_44.1kHz.wav',None,1000,,,,,37,2,150,2,,,,,967.1856752000022,968.1695066999964,968.169837550007,None,1,,,,,,,,,,,,,Levi,001,2023-10-17_15h56.51.997,Oddball_task,2022.2.5,60.05825650843395,
target,soundFiles/1200Hz_-3dBFS_3s_44.1kHz.wav',t,1200,,,,,37,3,151,3,,,,,970.6837515000079,971.666075000001,971.66713055,t,1,,0.8911791999998968,,,,,,,,,,,Levi,001,2023-10-17_15h56.51.997,Oddball_task,2022.2.5,60.05825650843395,
standard,soundFiles/1000Hz_-3dBFS_3s_44.1kHz.wav',None,1000,,,,,38,0,152,1,,,,,974.1812575000076,975.1638117999973,975.1618385499984,None,1,,,977.6754683000036,,,,,,,,,,Levi,001,2023-10-17_15h56.51.997,Oddball_task,2022.2.5,60.05825650843395,
standard,soundFiles/1000Hz_-3dBFS_3s_44.1kHz.wav',None,1000,,,,,38,1,153,1,,,,,977.694975499995,978.6583408000006,978.6610803500022,None,1,,,981.1743973999983,,,,,,,,,,Levi,001,2023-10-17_15h56.51.997,Oddball_task,2022.2.5,60.05825650843395,
standard,soundFiles/1000Hz_-3dBFS_3s_44.1kHz.wav',None,1000,,,,,38,2,154,0,,,,,981.191986699996,982.1729007999966,982.1738462500012,None,1,,,,,,,,,,,,,Levi,001,2023-10-17_15h56.51.997,Oddball_task,2022.2.5,60.05825650843395,
standard,soundFiles/1000Hz_-3dBFS_3s_44.1kHz.wav',None,1000,,,,,38,3,155,1,,,,,984.6880213999975,985.6705365000089,985.6691212500097,None,1,,,,,,,,,,,,,Levi,001,2023-10-17_15h56.51.997,Oddball_task,2022.2.5,60.05825650843395,
standard,soundFiles/1000Hz_-3dBFS_3s_44.1kHz.wav',None,1000,,,,,39,0,156,0,,,,,988.1833612000046,989.166884899998,989.1676152500091,None,1,,,,,,,,,,,,,Levi,001,2023-10-17_15h56.51.997,Oddball_task,2022.2.5,60.05825650843395,
standard,soundFiles/1000Hz_-3dBFS_3s_44.1kHz.wav',None,1000,,,,,39,1,157,2,,,,,991.6797200000001,992.6623314000026,992.6632061500073,None,1,,,,,,,,,,,,,Levi,001,2023-10-17_15h56.51.997,Oddball_task,2022.2.5,60.05825650843395,
target,soundFiles/1200Hz_-3dBFS_3s_44.1kHz.wav',t,1200,,,,,39,2,158,3,,,,,995.1764816000068,996.1589144000027,996.1606314500037,t,1,,0.8372380000073463,998.6737848000048,,,,,,,,,,Levi,001,2023-10-17_15h56.51.997,Oddball_task,2022.2.5,60.05825650843395,
standard,soundFiles/1000Hz_-3dBFS_3s_44.1kHz.wav',None,1000,,,,,39,3,159,0,,,,,998.6922767000069,999.6726634000079,999.6736523500091,None,1,,,,,,,,1000.6716274000064,,,,,Levi,001,2023-10-17_15h56.51.997,Oddball_task,2022.2.5,60.05825650843395,
standard,soundFiles/1000Hz_-3dBFS_3s_44.1kHz.wav',None,1000,,,,,40,0,160,0,,,,,1002.1884266999987,1003.170624499995,1003.1693796499982,None,1,,,,,,,,,,,,,Levi,001,2023-10-17_15h56.51.997,Oddball_task,2022.2.5,60.05825650843395,
standard,soundFiles/1000Hz_-3dBFS_3s_44.1kHz.wav',None,1000,,,,,40,1,161,0,,,,,1005.6833931000001,1006.6671598999965,1006.6657672500093,None,1,,,,,,,,,,,,,Levi,001,2023-10-17_15h56.51.997,Oddball_task,2022.2.5,60.05825650843395,
standard,soundFiles/1000Hz_-3dBFS_3s_44.1kHz.wav',None,1000,,,,,40,2,162,2,,,,,1009.1828085000016,1010.1630302999984,1010.1641326500045,None,1,,,1012.6785038000089,,,,,,,,,,Levi,001,2023-10-17_15h56.51.997,Oddball_task,2022.2.5,60.05825650843395,
target,soundFiles/1200Hz_-3dBFS_3s_44.1kHz.wav',t,1200,,,,,40,3,163,3,,,,,1012.6936965000059,1013.6609983000089,1013.6615862499981,t,1,,1.096756800005096,1016.1748823000089,,,,,,,,,,Levi,001,2023-10-17_15h56.51.997,Oddball_task,2022.2.5,60.05825650843395,
standard,soundFiles/1000Hz_-3dBFS_3s_44.1kHz.wav',None,1000,,,,,41,0,164,1,,,,,1016.1916731000092,1017.1736437000072,1017.1744449500053,None,1,,,,,,,,,,,,,Levi,001,2023-10-17_15h56.51.997,Oddball_task,2022.2.5,60.05825650843395,
standard,soundFiles/1000Hz_-3dBFS_3s_44.1kHz.wav',None,1000,,,,,41,1,165,2,,,,,1019.6874400000088,1020.6713578000054,1020.6702502500062,None,1,,,,,,,,,,,,,Levi,001,2023-10-17_15h56.51.997,Oddball_task,2022.2.5,60.05825650843395,
standard,soundFiles/1000Hz_-3dBFS_3s_44.1kHz.wav',None,1000,,,,,41,2,166,0,,,,,1023.1855284000048,1024.1676024000044,1024.1666032500011,None,1,,,,,,,,,,,,,Levi,001,2023-10-17_15h56.51.997,Oddball_task,2022.2.5,60.05825650843395,
target,soundFiles/1200Hz_-3dBFS_3s_44.1kHz.wav',t,1200,,,,,41,3,167,3,,,,,1026.6827679999988,1027.6651020999998,1027.6624464499996,t,1,,0.9388507999974536,1030.1793089999992,,,,,,,,,,Levi,001,2023-10-17_15h56.51.997,Oddball_task,2022.2.5,60.05825650843395,
target,soundFiles/1200Hz_-3dBFS_3s_44.1kHz.wav',t,1200,,,,,42,0,168,3,,,,,1030.1967189999996,1031.1596537000005,1031.1614854500017,t,1,,1.223270999995293,1033.6592008000007,,,,,,,,,,Levi,001,2023-10-17_15h56.51.997,Oddball_task,2022.2.5,60.05825650843395,
standard,soundFiles/1000Hz_-3dBFS_3s_44.1kHz.wav',None,1000,,,,,42,1,169,0,,,,,1033.6905104000034,1034.6746966000064,1034.6731312499992,None,1,,,,,,,,,,,,,Levi,001,2023-10-17_15h56.51.997,Oddball_task,2022.2.5,60.05825650843395,
standard,soundFiles/1000Hz_-3dBFS_3s_44.1kHz.wav',None,1000,,,,,42,2,170,1,,,,,1037.1886362000077,1038.1702652999957,1038.1713665500079,None,1,,,,,,,,,,,,,Levi,001,2023-10-17_15h56.51.997,Oddball_task,2022.2.5,60.05825650843395,
standard,soundFiles/1000Hz_-3dBFS_3s_44.1kHz.wav',None,1000,,,,,42,3,171,2,,,,,1040.6837712999986,1041.6703457999974,1041.6660814500005,None,1,,,,,,,,,,,,,Levi,001,2023-10-17_15h56.51.997,Oddball_task,2022.2.5,60.05825650843395,
standard,soundFiles/1000Hz_-3dBFS_3s_44.1kHz.wav',None,1000,,,,,43,0,172,1,,,,,1044.1824095000047,1045.163356200006,1045.1646619500038,None,1,,,1047.6621205999982,,,,,,,,,,Levi,001,2023-10-17_15h56.51.997,Oddball_task,2022.2.5,60.05825650843395,
standard,soundFiles/1000Hz_-3dBFS_3s_44.1kHz.wav',None,1000,,,,,43,1,173,1,,,,,1047.6772148000018,1048.6612640999956,1048.661507050006,None,1,,,1051.1763696999988,,,,,,1051.1763696999988,,,,Levi,001,2023-10-17_15h56.51.997,Oddball_task,2022.2.5,60.05825650843395,
standard,soundFiles/1000Hz_-3dBFS_3s_44.1kHz.wav',None,1000,,,,,43,2,174,2,,,,,1051.1763696999988,1052.1754243000032,1052.1751437500002,None,1,,,,,,,,,,,,,Levi,001,2023-10-17_15h56.51.997,Oddball_task,2022.2.5,60.05825650843395,
target,soundFiles/1200Hz_-3dBFS_3s_44.1kHz.wav',t,1200,,,,,43,3,175,3,,,,,1054.6871868000017,1055.6692664000002,1055.66990735,t,1,,1.0253303999925265,1058.168849499998,,,,,,,,,,Levi,001,2023-10-17_15h56.51.997,Oddball_task,2022.2.5,60.05825650843395,
standard,soundFiles/1000Hz_-3dBFS_3s_44.1kHz.wav',None,1000,,,,,44,0,176,2,,,,,1058.1841186000092,1059.1692395999999,1059.1699851500102,None,1,,,,,,,,,,,,,Levi,001,2023-10-17_15h56.51.997,Oddball_task,2022.2.5,60.05825650843395,
target,soundFiles/1200Hz_-3dBFS_3s_44.1kHz.wav',t,1200,,,,,44,1,177,3,,,,,1061.681173600009,1062.664472999997,1062.6633541499991,t,1,,1.318084300000919,,,,,,,,,,,Levi,001,2023-10-17_15h56.51.997,Oddball_task,2022.2.5,60.05825650843395,
standard,soundFiles/1000Hz_-3dBFS_3s_44.1kHz.wav',None,1000,,,,,44,2,178,0,,,,,1065.1793022000056,1066.1766346000077,1066.180284149997,None,1,,,,,,,,,,,,,Levi,001,2023-10-17_15h56.51.997,Oddball_task,2022.2.5,60.05825650843395,
standard,soundFiles/1000Hz_-3dBFS_3s_44.1kHz.wav',None,1000,,,,,44,3,179,0,,,,,1068.6743483000027,1069.6749612999993,1069.6745016500004,None,1,,,,,,,,,,,,,Levi,001,2023-10-17_15h56.51.997,Oddball_task,2022.2.5,60.05825650843395,
standard,soundFiles/1000Hz_-3dBFS_3s_44.1kHz.wav',None,1000,,,,,45,0,180,1,,,,,1072.1880957999965,1073.1752522000024,1073.174393050003,None,1,,,,,,,,,,,,,Levi,001,2023-10-17_15h56.51.997,Oddball_task,2022.2.5,60.05825650843395,
standard,soundFiles/1000Hz_-3dBFS_3s_44.1kHz.wav',None,1000,,,,,45,1,181,0,,,,,1075.686196900002,1076.667204199999,1076.6685898500086,None,1,,,,,,,,,,,,,Levi,001,2023-10-17_15h56.51.997,Oddball_task,2022.2.5,60.05825650843395,
standard,soundFiles/1000Hz_-3dBFS_3s_44.1kHz.wav',None,1000,,,,,45,2,182,0,,,,,1079.1832847000042,1080.1647950000042,1080.167185849999,None,1,,,1082.662248499997,,,,,,,,,,Levi,001,2023-10-17_15h56.51.997,Oddball_task,2022.2.5,60.05825650843395,
standard,soundFiles/1000Hz_-3dBFS_3s_44.1kHz.wav',None,1000,,,,,45,3,183,1,,,,,1082.6782590000075,1083.6608560000022,1083.6613139500055,None,1,,,1086.1748579999985,,,,,,,,,,Levi,001,2023-10-17_15h56.51.997,Oddball_task,2022.2.5,60.05825650843395,
standard,soundFiles/1000Hz_-3dBFS_3s_44.1kHz.wav',None,1000,,,,,46,0,184,2,,,,,1086.1930442000012,1087.1737258000067,1087.1760175500035,None,1,,,,,,,,,,,,,Levi,001,2023-10-17_15h56.51.997,Oddball_task,2022.2.5,60.05825650843395,
target,soundFiles/1200Hz_-3dBFS_3s_44.1kHz.wav',t,1200,,,,,46,1,185,3,,,,,1089.6879080000072,1090.6710927000095,1090.6721603499986,t,1,,0.9258975999982795,,,,,,,,,,,Levi,001,2023-10-17_15h56.51.997,Oddball_task,2022.2.5,60.05825650843395,
standard,soundFiles/1000Hz_-3dBFS_3s_44.1kHz.wav',None,1000,,,,,46,2,186,0,,,,,1093.188857000001,1094.1725592000003,1094.1672358500014,None,1,,,,,,,,,,,,,Levi,001,2023-10-17_15h56.51.997,Oddball_task,2022.2.5,60.05825650843395,
standard,soundFiles/1000Hz_-3dBFS_3s_44.1kHz.wav',None,1000,,,,,46,3,187,1,,,,,1096.6813656000013,1097.665709199995,1097.66621515,None,1,,,,,,,,,,,,,Levi,001,2023-10-17_15h56.51.997,Oddball_task,2022.2.5,60.05825650843395,
standard,soundFiles/1000Hz_-3dBFS_3s_44.1kHz.wav',None,1000,,,,,47,0,188,0,,,,,1100.1781754999975,1101.162604600002,1101.1614396500022,None,1,,,1103.6757466999989,,,,,,,,,,Levi,001,2023-10-17_15h56.51.997,Oddball_task,2022.2.5,60.05825650843395,
standard,soundFiles/1000Hz_-3dBFS_3s_44.1kHz.wav',None,1000,,,,,47,1,189,2,,,,,1103.6933314000053,1104.6573635000095,1104.6618161500023,None,1,,,1107.171391900003,,,,,,,,,,Levi,001,2023-10-17_15h56.51.997,Oddball_task,2022.2.5,60.05825650843395,
target,soundFiles/1200Hz_-3dBFS_3s_44.1kHz.wav',t,1200,,,,,47,2,190,3,,,,,1107.1877606000053,1108.1731256000057,1108.1706179499974,t,1,,0.9125051000009989,,,,,,,,,,,Levi,001,2023-10-17_15h56.51.997,Oddball_task,2022.2.5,60.05825650843395,
target,soundFiles/1200Hz_-3dBFS_3s_44.1kHz.wav',t,1200,,,,,47,3,191,3,,,,,1110.6894307000039,1111.6689862000057,1111.6691534500073,t,1,,0.7629389000067022,,,,,,,,,,,Levi,001,2023-10-17_15h56.51.997,Oddball_task,2022.2.5,60.05825650843395,
standard,soundFiles/1000Hz_-3dBFS_3s_44.1kHz.wav',None,1000,,,,,48,0,192,1,,,,,1114.1837216999993,1115.1660445000016,1115.164248249997,None,1,,,,,,,,1116.1635593999963,,,,,Levi,001,2023-10-17_15h56.51.997,Oddball_task,2022.2.5,60.05825650843395,
standard,soundFiles/1000Hz_-3dBFS_3s_44.1kHz.wav',None,1000,,,,,48,1,193,1,,,,,1117.679621800009,1118.662736600003,1118.661651750002,None,1,,,1121.1768122000067,,,,,,,,,,Levi,001,2023-10-17_15h56.51.997,Oddball_task,2022.2.5,60.05825650843395,
standard,soundFiles/1000Hz_-3dBFS_3s_44.1kHz.wav',None,1000,,,,,48,2,194,0,,,,,1121.1923253999994,1122.1738802000036,1122.173620850002,None,1,,,,,,,,1123.173427200003,,,,,Levi,001,2023-10-17_15h56.51.997,Oddball_task,2022.2.5,60.05825650843395,
standard,soundFiles/1000Hz_-3dBFS_3s_44.1kHz.wav',None,1000,,,,,48,3,195,0,,,,,1124.6894218000089,1125.6735212000058,1125.6725735500017,None,1,,,,,,,,,,,,,Levi,001,2023-10-17_15h56.51.997,Oddball_task,2022.2.5,60.05825650843395,
standard,soundFiles/1000Hz_-3dBFS_3s_44.1kHz.wav',None,1000,,,,,49,0,196,1,,,,,1128.1908926000033,1129.167811300009,1129.174914249999,None,1,,,1131.6663868000032,,,,,,,,,,Levi,001,2023-10-17_15h56.51.997,Oddball_task,2022.2.5,60.05825650843395,
standard,soundFiles/1000Hz_-3dBFS_3s_44.1kHz.wav',None,1000,,,,,49,1,197,0,,,,,1131.6823540000041,1132.666574200004,1132.6657592500064,None,1,,,,,,,,,,,,,Levi,001,2023-10-17_15h56.51.997,Oddball_task,2022.2.5,60.05825650843395,
standard,soundFiles/1000Hz_-3dBFS_3s_44.1kHz.wav',None,1000,,,,,49,2,198,2,,,,,1135.178594099998,1136.1628778000013,1136.162196550003,None,1,,,1138.6775512000022,,,,,,,,,,Levi,001,2023-10-17_15h56.51.997,Oddball_task,2022.2.5,60.05825650843395,
standard,soundFiles/1000Hz_-3dBFS_3s_44.1kHz.wav',None,1000,,,,,49,3,199,2,,,,,1138.6942337000073,1139.6768244999985,1139.6778437499975,None,1,,,,,,,,,,,,,Levi,001,2023-10-17_15h56.51.997,Oddball_task,2022.2.5,60.05825650843395,
,,,,,,,,,,,,,,,,,,,,,,,,,,,,,,1142.189132200001,1145.171531800006,1145.2047606999986,,,,,,,
