trial,file,corrAns,tone,trials_2.thisRepN,trials_2.thisTrialN,trials_2.thisN,trials_2.thisIndex,instructions.started,key_resp_1.started,key_resp_1.keys,key_resp_1.rt,fixation_cross.started,response.started,sound_1.started,response.stopped,fixation_cross.stopped,FixDur,response.keys,response.corr,response.rt,sound_1.stopped,thank_you.started,exit_exp.started,thank_you.stopped,participant,session,date,expName,psychopyVersion,frameRate,
,,,,,,,,16.625997200026177,16.625997200026177,space,40.45061409997288,,,,,,,,,,,,,,,001,2023-11-08_16h37.04.537,Oddball_task,2022.2.5,None,
standard,soundFiles/1000Hz_-3dBFS_3s_44.1kHz.wav',None,1000,0,0,0,1,,,,,57.11151890002657,58.077846799977124,58.07923950001132,60.077498300001025,61.641640899993945,4.522776975276199,None,1,,,,,,,001,2023-11-08_16h37.04.537,Oddball_task,2022.2.5,None,
target,soundFiles/1200Hz_-3dBFS_3s_44.1kHz.wav',t,2000,0,1,1,3,,,,,61.641640899993945,62.641989000025205,62.63956579999067,64.65476990002207,64.30593969998881,2.655327713899197,t,1,1.4363577999756671,,,,,,001,2023-11-08_16h37.04.537,Oddball_task,2022.2.5,None,
standard,soundFiles/1000Hz_-3dBFS_3s_44.1kHz.wav',None,1000,0,2,2,2,,,,,64.65476990002207,65.65384450001875,65.65569190002279,67.6525346999988,67.48625600000378,2.826677661624393,None,1,,,,,,,001,2023-11-08_16h37.04.537,Oddball_task,2022.2.5,None,
standard,soundFiles/1000Hz_-3dBFS_3s_44.1kHz.wav',None,1000,0,3,3,0,,,,,67.6525346999988,68.65082749997964,68.65269209999823,70.64942199998768,70.21766889997525,2.556995536321969,None,1,,,,,,,001,2023-11-08_16h37.04.537,Oddball_task,2022.2.5,None,
standard,soundFiles/1000Hz_-3dBFS_3s_44.1kHz.wav',None,1000,1,0,4,2,,,,,70.64942199998768,71.63191509997705,71.63637400001753,73.64594529999886,74.54602770000929,3.890354036325415,None,1,,,,,,,001,2023-11-08_16h37.04.537,Oddball_task,2022.2.5,None,
target,soundFiles/1200Hz_-3dBFS_3s_44.1kHz.wav',t,2000,1,1,5,3,,,,,74.54602770000929,75.54532969999127,75.54681509997462,77.54371870000614,79.27542740001809,4.717570966700418,t,1,1.3932331000105478,,,,,,001,2023-11-08_16h37.04.537,Oddball_task,2022.2.5,None,
standard,soundFiles/1000Hz_-3dBFS_3s_44.1kHz.wav',None,1000,1,2,6,1,,,,,79.27542740001809,80.27335560001666,80.27823949997546,82.27233170002,83.47313549998216,4.190343231417323,None,1,,,,,,,001,2023-11-08_16h37.04.537,Oddball_task,2022.2.5,None,
standard,soundFiles/1000Hz_-3dBFS_3s_44.1kHz.wav',None,1000,1,3,7,0,,,,,83.47313549998216,84.4525320000248,84.45614649998024,86.45074130001012,86.66849110001931,3.181631484997458,None,1,,,,,,,001,2023-11-08_16h37.04.537,Oddball_task,2022.2.5,None,
standard,soundFiles/1000Hz_-3dBFS_3s_44.1kHz.wav',None,1000,2,0,8,0,,,,,86.66849110001931,87.66745910001919,87.6663633000222,89.68077889998676,89.21876999997767,2.5393022571187327,None,1,,,,,,,001,2023-11-08_16h37.04.537,Oddball_task,2022.2.5,None,
standard,soundFiles/1000Hz_-3dBFS_3s_44.1kHz.wav',None,1000,2,1,9,2,,,,,89.68077889998676,90.68003310001222,90.68119870000518,92.68095529999118,93.8638066999847,4.176047749735732,None,1,,,,,,,001,2023-11-08_16h37.04.537,Oddball_task,2022.2.5,None,
standard,soundFiles/1000Hz_-3dBFS_3s_44.1kHz.wav',None,1000,2,2,10,1,,,,,93.8638066999847,94.86082449997775,94.85949020002735,96.87475209997501,96.72643039998366,2.852018986133711,None,1,,,,,,,001,2023-11-08_16h37.04.537,Oddball_task,2022.2.5,None,
target,soundFiles/1200Hz_-3dBFS_3s_44.1kHz.wav',t,2000,2,3,11,3,,,,,96.87475209997501,97.87444929999765,97.87569929999299,99.88964230002603,100.58959310001228,3.7065620730518702,t,1,1.3177733999909833,,,,,,001,2023-11-08_16h37.04.537,Oddball_task,2022.2.5,None,
target,soundFiles/1200Hz_-3dBFS_3s_44.1kHz.wav',t,2000,3,0,12,3,,,,,100.58959310001228,101.57209600001806,101.57234360000584,103.58815849997336,104.80307419999735,4.209032738419743,t,1,0.8101301999995485,,,,,,001,2023-11-08_16h37.04.537,Oddball_task,2022.2.5,None,
standard,soundFiles/1000Hz_-3dBFS_3s_44.1kHz.wav',None,1000,3,1,13,2,,,,,104.80307419999735,105.78458610002417,105.7847205000231,107.7832008000114,107.76742920000106,2.948347211622867,None,1,,,,,,,001,2023-11-08_16h37.04.537,Oddball_task,2022.2.5,None,
standard,soundFiles/1000Hz_-3dBFS_3s_44.1kHz.wav',None,1000,3,2,14,1,,,,,107.7832008000114,108.78098819998559,108.7803162000142,110.7837118000025,110.87798729998758,3.0801241734494855,None,1,,,,,,,001,2023-11-08_16h37.04.537,Oddball_task,2022.2.5,None,
standard,soundFiles/1000Hz_-3dBFS_3s_44.1kHz.wav',None,1000,3,3,15,0,,,,,110.87798729998758,111.8789179000305,111.87861979999579,113.89280680002412,113.26391450001393,2.373762197538306,None,1,,,,,,,001,2023-11-08_16h37.04.537,Oddball_task,2022.2.5,None,
target,soundFiles/1200Hz_-3dBFS_3s_44.1kHz.wav',t,2000,4,0,16,3,,,,,113.89280680002412,114.87466349999886,114.87698790002614,116.8729174999753,117.83838690002449,3.945935075067252,t,1,0.5350306999753229,,,,,,001,2023-11-08_16h37.04.537,Oddball_task,2022.2.5,None,
standard,soundFiles/1000Hz_-3dBFS_3s_44.1kHz.wav',None,1000,4,1,17,2,,,,,117.83838690002449,118.83824140002253,118.83731039999984,120.8516409000149,119.98711190000176,2.1409373489516983,None,1,,,,,,,001,2023-11-08_16h37.04.537,Oddball_task,2022.2.5,None,
standard,soundFiles/1000Hz_-3dBFS_3s_44.1kHz.wav',None,1000,4,2,18,1,,,,,120.8516409000149,121.85198129998753,121.85209740002173,123.86692499998026,124.76566809997894,3.907149475061457,None,1,,122.85114669997711,,,,,001,2023-11-08_16h37.04.537,Oddball_task,2022.2.5,None,
standard,soundFiles/1000Hz_-3dBFS_3s_44.1kHz.wav',None,1000,4,3,19,0,,,,,124.76566809997894,125.76506240002345,125.76513290000148,127.779242300021,128.81153880001511,4.044919552530459,None,1,,,,,,,001,2023-11-08_16h37.04.537,Oddball_task,2022.2.5,None,
standard,soundFiles/1000Hz_-3dBFS_3s_44.1kHz.wav',None,1000,5,0,20,0,,,,,128.81153880001511,129.81214539997745,129.81057479997398,131.8287229000125,133.1760193000082,4.355878202373317,None,1,,,,,,,001,2023-11-08_16h37.04.537,Oddball_task,2022.2.5,None,
target,soundFiles/1200Hz_-3dBFS_3s_44.1kHz.wav',t,2000,5,1,21,3,,,,,133.1760193000082,134.17384499998298,134.17272749999537,136.17135409999173,137.286800700007,4.109835663603783,t,1,0.8918740000226535,,,,,,001,2023-11-08_16h37.04.537,Oddball_task,2022.2.5,None,
standard,soundFiles/1000Hz_-3dBFS_3s_44.1kHz.wav',None,1000,5,2,22,2,,,,,137.286800700007,138.2867937000119,138.28611030001193,140.30101140000625,142.10078929999145,4.803094753065149,None,1,,,,,,,001,2023-11-08_16h37.04.537,Oddball_task,2022.2.5,None,
standard,soundFiles/1000Hz_-3dBFS_3s_44.1kHz.wav',None,1000,5,3,23,1,,,,,142.10078929999145,143.0808899999829,143.08328609997406,145.08058329997584,144.6479814000195,2.5423736340504277,None,1,,,,,,,001,2023-11-08_16h37.04.537,Oddball_task,2022.2.5,None,
standard,soundFiles/1000Hz_-3dBFS_3s_44.1kHz.wav',None,1000,6,0,24,2,,,,,145.08058329997584,146.07870509999339,146.07959160001482,148.07870190002723,148.51138610002818,3.428623949784611,None,1,,,,,,,001,2023-11-08_16h37.04.537,Oddball_task,2022.2.5,None,
standard,soundFiles/1000Hz_-3dBFS_3s_44.1kHz.wav',None,1000,6,1,25,0,,,,,148.51138610002818,149.5089147000108,149.50972200001124,151.5244229999953,151.70695530000376,3.1867381782256023,None,1,,,,,,,001,2023-11-08_16h37.04.537,Oddball_task,2022.2.5,None,
target,soundFiles/1200Hz_-3dBFS_3s_44.1kHz.wav',t,2000,6,2,26,3,,,,,151.70695530000376,152.69076209998457,152.69217909997096,154.7044039000175,156.00238169997465,4.291167013223699,t,1,0.6746119000017643,,,,,,001,2023-11-08_16h37.04.537,Oddball_task,2022.2.5,None,
standard,soundFiles/1000Hz_-3dBFS_3s_44.1kHz.wav',None,1000,6,3,27,1,,,,,156.00238169997465,157.00133410003036,157.0031313000014,158.99959219997982,159.65057519997936,3.6329682283443474,None,1,,,,,,,001,2023-11-08_16h37.04.537,Oddball_task,2022.2.5,None,
standard,soundFiles/1000Hz_-3dBFS_3s_44.1kHz.wav',None,1000,7,0,28,1,,,,,159.65057519997936,160.6493383999914,160.6493134999997,162.6627082999912,163.562339600001,3.90955592869995,None,1,,,,,,,001,2023-11-08_16h37.04.537,Oddball_task,2022.2.5,None,
standard,soundFiles/1000Hz_-3dBFS_3s_44.1kHz.wav',None,1000,7,1,29,2,,,,,163.562339600001,164.56323799997335,164.56185459999833,166.56109029997606,168.508141600003,4.931951056516913,None,1,,165.56147409998812,,,,,001,2023-11-08_16h37.04.537,Oddball_task,2022.2.5,None,
target,soundFiles/1200Hz_-3dBFS_3s_44.1kHz.wav',t,2000,7,2,30,3,,,,,168.508141600003,169.50791009998647,169.50614789997925,171.52192069997545,171.65568050002912,3.1331658992725244,t,1,0.5429720000247471,,,,,,001,2023-11-08_16h37.04.537,Oddball_task,2022.2.5,None,
standard,soundFiles/1000Hz_-3dBFS_3s_44.1kHz.wav',None,1000,7,3,31,0,,,,,171.65568050002912,172.65427890000865,172.65531859997427,174.67004739999538,175.78647589997854,4.116446586748188,None,1,,,,,,,001,2023-11-08_16h37.04.537,Oddball_task,2022.2.5,None,
target,soundFiles/1200Hz_-3dBFS_3s_44.1kHz.wav',t,2000,8,0,32,3,,,,,175.78647589997854,176.78479260002496,176.78854719999944,178.7820779000176,180.732129800017,4.931782356767948,t,1,0.9638357000076212,,,,,,001,2023-11-08_16h37.04.537,Oddball_task,2022.2.5,None,
standard,soundFiles/1000Hz_-3dBFS_3s_44.1kHz.wav',None,1000,8,1,33,0,,,,,180.732129800017,181.7290191000211,181.7308816000237,183.72816509997938,184.85980299999937,4.12738556996992,None,1,,,,,,,001,2023-11-08_16h37.04.537,Oddball_task,2022.2.5,None,
standard,soundFiles/1000Hz_-3dBFS_3s_44.1kHz.wav',None,1000,8,2,34,1,,,,,184.85980299999937,185.8577840999933,185.85903539999853,187.85603540000739,187.52452709997306,2.6632460125841155,None,1,,,,,,,001,2023-11-08_16h37.04.537,Oddball_task,2022.2.5,None,
standard,soundFiles/1000Hz_-3dBFS_3s_44.1kHz.wav',None,1000,8,3,35,2,,,,,187.85603540000739,188.84054290002678,188.84373350001405,190.8529445999884,191.75336149998475,3.884626193914064,None,1,,,,,,,001,2023-11-08_16h37.04.537,Oddball_task,2022.2.5,None,
standard,soundFiles/1000Hz_-3dBFS_3s_44.1kHz.wav',None,1000,9,0,36,2,,,,,191.75336149998475,192.75283110002056,192.75317930001765,194.75199309998425,194.43516870000167,2.675548542183037,None,1,,,,,,,001,2023-11-08_16h37.04.537,Oddball_task,2022.2.5,None,
standard,soundFiles/1000Hz_-3dBFS_3s_44.1kHz.wav',None,1000,9,1,37,0,,,,,194.75199309998425,195.74933700001566,195.75005539997946,197.76508310000645,198.93060369999148,4.168013070906797,None,1,,,,,,,001,2023-11-08_16h37.04.537,Oddball_task,2022.2.5,None,
standard,soundFiles/1000Hz_-3dBFS_3s_44.1kHz.wav',None,1000,9,2,38,1,,,,,198.93060369999148,199.91131980001228,199.9130781999789,201.9270626999787,201.9788975000265,3.0447468737337546,None,1,,,,,,,001,2023-11-08_16h37.04.537,Oddball_task,2022.2.5,None,
target,soundFiles/1200Hz_-3dBFS_3s_44.1kHz.wav',t,2000,9,3,39,3,,,,,201.9788975000265,202.95950629998697,202.96004860000684,204.9574144000071,205.3111682999879,3.32455329771468,t,1,0.5354994999943301,203.95759170001838,,,,,001,2023-11-08_16h37.04.537,Oddball_task,2022.2.5,None,
standard,soundFiles/1000Hz_-3dBFS_3s_44.1kHz.wav',None,1000,10,0,40,0,,,,,205.3111682999879,206.3064846000052,206.30648960000835,208.32110569998622,210.13707830000203,4.821396164319787,None,1,,,,,,,001,2023-11-08_16h37.04.537,Oddball_task,2022.2.5,None,
target,soundFiles/1200Hz_-3dBFS_3s_44.1kHz.wav',t,2000,10,1,41,3,,,,,210.13707830000203,211.13577320001787,211.1347231000196,213.14934080000967,214.06463490001624,3.929804624556364,t,1,0.7196137999999337,212.13659880001796,,,,,001,2023-11-08_16h37.04.537,Oddball_task,2022.2.5,None,
standard,soundFiles/1000Hz_-3dBFS_3s_44.1kHz.wav',None,1000,10,2,42,1,,,,,214.06463490001624,215.065563799988,215.0647026999737,217.07900720002363,218.39434950001305,4.327519241539921,None,1,,,,,,,001,2023-11-08_16h37.04.537,Oddball_task,2022.2.5,None,
standard,soundFiles/1000Hz_-3dBFS_3s_44.1kHz.wav',None,1000,10,3,43,2,,,,,218.39434950001305,219.39335259998916,219.39404080001404,221.39222979999613,220.64490259997547,2.2383621685044837,None,1,,,,,,,001,2023-11-08_16h37.04.537,Oddball_task,2022.2.5,None,
standard,soundFiles/1000Hz_-3dBFS_3s_44.1kHz.wav',None,1000,11,0,44,2,,,,,221.39222979999613,222.39188160002232,222.39003470001043,224.40745519998018,224.1219297000207,2.720474634334274,None,1,,,,,,,001,2023-11-08_16h37.04.537,Oddball_task,2022.2.5,None,
standard,soundFiles/1000Hz_-3dBFS_3s_44.1kHz.wav',None,1000,11,1,45,0,,,,,224.40745519998018,225.40517560002627,225.40556710000382,227.40345839998918,227.8020955999964,3.3923848807183115,None,1,,,,,,,001,2023-11-08_16h37.04.537,Oddball_task,2022.2.5,None,
target,soundFiles/1200Hz_-3dBFS_3s_44.1kHz.wav',t,2000,11,2,46,3,,,,,227.8020955999964,228.80230510002002,228.80178810000652,230.81601890001912,230.35063020000234,2.543464310243812,t,1,0.6491428999579512,,,,,,001,2023-11-08_16h37.04.537,Oddball_task,2022.2.5,None,
standard,soundFiles/1000Hz_-3dBFS_3s_44.1kHz.wav',None,1000,11,3,47,1,,,,,230.81601890001912,231.81679840001743,231.8168776000035,233.83068970002932,234.4469430000172,3.6297873027446923,None,1,,,,,,,001,2023-11-08_16h37.04.537,Oddball_task,2022.2.5,None,
standard,soundFiles/1000Hz_-3dBFS_3s_44.1kHz.wav',None,1000,12,0,48,1,,,,,234.4469430000172,235.42895109998062,235.43019830001285,237.44444510003086,239.10996299999533,4.659126775599097,None,1,,,,,,,001,2023-11-08_16h37.04.537,Oddball_task,2022.2.5,None,
target,soundFiles/1200Hz_-3dBFS_3s_44.1kHz.wav',t,2000,12,1,49,3,,,,,239.10996299999533,240.10735270002624,240.1085681999917,242.12226909998572,241.4909746000194,2.368613449140323,t,1,1.1473483999725431,,,,,,001,2023-11-08_16h37.04.537,Oddball_task,2022.2.5,None,
standard,soundFiles/1000Hz_-3dBFS_3s_44.1kHz.wav',None,1000,12,2,50,0,,,,,242.12226909998572,243.1211363999755,243.12485260000685,245.11936120002065,246.26867319998564,4.138195446297637,None,1,,,,,,,001,2023-11-08_16h37.04.537,Oddball_task,2022.2.5,None,
standard,soundFiles/1000Hz_-3dBFS_3s_44.1kHz.wav',None,1000,12,3,51,2,,,,,246.26867319998564,247.26711050001904,247.26839760000584,249.26525180001045,250.93162089999532,4.657143990481623,None,1,,,,,,,001,2023-11-08_16h37.04.537,Oddball_task,2022.2.5,None,
standard,soundFiles/1000Hz_-3dBFS_3s_44.1kHz.wav',None,1000,13,0,52,1,,,,,250.93162089999532,251.92955539998366,251.93109990000957,253.92956810002215,254.69552900001872,3.74998758333473,None,1,,,,,,,001,2023-11-08_16h37.04.537,Oddball_task,2022.2.5,None,
target,soundFiles/1200Hz_-3dBFS_3s_44.1kHz.wav',t,2000,13,1,53,3,,,,,254.69552900001872,255.69452670001192,255.69394569997675,257.7126749000163,257.82579789997544,3.119111098977867,t,1,0.4940919999498874,,,,,,001,2023-11-08_16h37.04.537,Oddball_task,2022.2.5,None,
standard,soundFiles/1000Hz_-3dBFS_3s_44.1kHz.wav',None,1000,13,2,54,2,,,,,257.82579789997544,258.8238130999962,258.82323489998237,260.83879790001083,260.03975569998147,2.2127046710336624,None,1,,,,,,,001,2023-11-08_16h37.04.537,Oddball_task,2022.2.5,None,
standard,soundFiles/1000Hz_-3dBFS_3s_44.1kHz.wav',None,1000,13,3,55,0,,,,,260.83879790001083,261.8368086999981,261.83762610001725,263.8531151000061,264.86723370000254,4.020973475705297,None,1,,,,,,,001,2023-11-08_16h37.04.537,Oddball_task,2022.2.5,None,
standard,soundFiles/1000Hz_-3dBFS_3s_44.1kHz.wav',None,1000,14,0,56,1,,,,,264.86723370000254,265.8693561999826,265.8660779000144,267.88226470001973,268.5655397999799,3.6990681500569615,None,1,,,,,,,001,2023-11-08_16h37.04.537,Oddball_task,2022.2.5,None,
standard,soundFiles/1000Hz_-3dBFS_3s_44.1kHz.wav',None,1000,14,1,57,2,,,,,268.5655397999799,269.5627318000188,269.5642447999795,271.57858590001706,273.2269572999794,4.661720108023474,None,1,,,,,,,001,2023-11-08_16h37.04.537,Oddball_task,2022.2.5,None,
standard,soundFiles/1000Hz_-3dBFS_3s_44.1kHz.wav',None,1000,14,2,58,0,,,,,273.2269572999794,274.226418700011,274.2251519999933,276.2234029999818,276.6249089000048,3.3979356830612786,None,1,,,,,,,001,2023-11-08_16h37.04.537,Oddball_task,2022.2.5,None,
target,soundFiles/1200Hz_-3dBFS_3s_44.1kHz.wav',t,2000,14,3,59,3,,,,,276.6249089000048,277.6232075000298,277.6222970999894,279.6382994999876,279.6046182999853,2.9743646793709466,t,1,0.6472130999900401,,,,,,001,2023-11-08_16h37.04.537,Oddball_task,2022.2.5,None,
standard,soundFiles/1000Hz_-3dBFS_3s_44.1kHz.wav',None,1000,15,0,60,0,,,,,279.6382994999876,280.6367939999909,280.6367138999864,282.65142260002904,282.38469490001444,2.745493770921184,None,1,,,,,,,001,2023-11-08_16h37.04.537,Oddball_task,2022.2.5,None,
standard,soundFiles/1000Hz_-3dBFS_3s_44.1kHz.wav',None,1000,15,1,61,1,,,,,282.65142260002904,283.65242509997915,283.6504063999979,285.66448560002027,285.5645887000137,2.9152655494037285,None,1,,284.64896279998356,,,,,001,2023-11-08_16h37.04.537,Oddball_task,2022.2.5,None,
standard,soundFiles/1000Hz_-3dBFS_3s_44.1kHz.wav',None,1000,15,2,62,2,,,,,285.66448560002027,286.6649467999814,286.6648961000261,288.6783129000105,289.8117408999824,4.132242922301262,None,1,,,,,,,001,2023-11-08_16h37.04.537,Oddball_task,2022.2.5,None,
target,soundFiles/1200Hz_-3dBFS_3s_44.1kHz.wav',t,2000,15,3,63,3,,,,,289.8117408999824,290.8094865999883,290.81190220001156,292.80891600000905,292.34218670002883,2.5180146497039324,t,1,1.084882800001651,,,,,,001,2023-11-08_16h37.04.537,Oddball_task,2022.2.5,None,
standard,soundFiles/1000Hz_-3dBFS_3s_44.1kHz.wav',None,1000,16,0,64,2,,,,,292.80891600000905,293.80704669997795,293.809035900014,295.8062076999922,295.6397044999758,2.8317252954968506,None,1,,,,,,,001,2023-11-08_16h37.04.537,Oddball_task,2022.2.5,None,
standard,soundFiles/1000Hz_-3dBFS_3s_44.1kHz.wav',None,1000,16,1,65,0,,,,,295.8062076999922,296.80618569999933,296.80494889997647,298.81828190002125,300.1188708000118,4.309074409124846,None,1,,,,,,,001,2023-11-08_16h37.04.537,Oddball_task,2022.2.5,None,
target,soundFiles/1200Hz_-3dBFS_3s_44.1kHz.wav',t,2000,16,2,66,3,,,,,300.1188708000118,301.11745590000646,301.11766730000966,303.11674879997736,304.23199230001774,4.108807920741824,t,1,1.4735446000122465,,,,,,001,2023-11-08_16h37.04.537,Oddball_task,2022.2.5,None,
standard,soundFiles/1000Hz_-3dBFS_3s_44.1kHz.wav',None,1000,16,3,67,1,,,,,304.23199230001774,305.23074369999813,305.2317475999822,307.24842860002536,306.4474232000066,2.202172864301722,None,1,,,,,,,001,2023-11-08_16h37.04.537,Oddball_task,2022.2.5,None,
standard,soundFiles/1000Hz_-3dBFS_3s_44.1kHz.wav',None,1000,17,0,68,1,,,,,307.24842860002536,308.24352030002046,308.24429059997203,310.2419062000117,311.6909368999768,4.433440137515172,None,1,,,,,,,001,2023-11-08_16h37.04.537,Oddball_task,2022.2.5,None,
standard,soundFiles/1000Hz_-3dBFS_3s_44.1kHz.wav',None,1000,17,1,69,2,,,,,311.6909368999768,312.691163600015,312.6904430000228,314.70577040000353,315.35448650002945,3.6516197138347106,None,1,,,,,,,001,2023-11-08_16h37.04.537,Oddball_task,2022.2.5,None,
target,soundFiles/1200Hz_-3dBFS_3s_44.1kHz.wav',t,2000,17,2,70,3,,,,,315.35448650002945,316.35882399999537,316.3529101999826,318.36991750000743,318.03511240001535,2.6764059783542207,t,1,0.5649089000071399,,,,,,001,2023-11-08_16h37.04.537,Oddball_task,2022.2.5,None,
standard,soundFiles/1000Hz_-3dBFS_3s_44.1kHz.wav',None,1000,17,3,71,0,,,,,318.36991750000743,319.36788209999213,319.36769419998166,321.38321910001105,320.8831986000296,2.5128714170354938,None,1,,,,,,,001,2023-11-08_16h37.04.537,Oddball_task,2022.2.5,None,
target,soundFiles/1200Hz_-3dBFS_3s_44.1kHz.wav',t,2000,18,0,72,3,,,,,321.38321910001105,322.3800304000033,322.3815403999994,324.3805571999983,325.02841500000795,3.640032734810017,t,1,0.8502812999649905,,,,,,001,2023-11-08_16h37.04.537,Oddball_task,2022.2.5,None,
standard,soundFiles/1000Hz_-3dBFS_3s_44.1kHz.wav',None,1000,18,1,73,1,,,,,325.02841500000795,326.02736120001646,326.0276485000155,328.04361599998083,328.85721190000186,3.8206762317795007,None,1,,,,,,,001,2023-11-08_16h37.04.537,Oddball_task,2022.2.5,None,
standard,soundFiles/1000Hz_-3dBFS_3s_44.1kHz.wav',None,1000,18,2,74,2,,,,,328.85721190000186,329.85787840001285,329.8568741000141,331.87145089998376,331.19022739998763,2.333074174525417,None,1,,,,,,,001,2023-11-08_16h37.04.537,Oddball_task,2022.2.5,None,
standard,soundFiles/1000Hz_-3dBFS_3s_44.1kHz.wav',None,1000,18,3,75,0,,,,,331.87145089998376,332.87094799999613,332.87144759998193,334.8865248999791,335.3868675000267,3.513113067339759,None,1,,,,,,,001,2023-11-08_16h37.04.537,Oddball_task,2022.2.5,None,
standard,soundFiles/1000Hz_-3dBFS_3s_44.1kHz.wav',None,1000,19,0,76,0,,,,,335.3868675000267,336.38383020000765,336.3850807000068,338.38177799998084,338.11771830002544,2.7284996629329976,None,1,,,,,,,001,2023-11-08_16h37.04.537,Oddball_task,2022.2.5,None,
standard,soundFiles/1000Hz_-3dBFS_3s_44.1kHz.wav',None,1000,19,1,77,1,,,,,338.38177799998084,339.3831457999768,339.3825960000046,341.39831140002934,341.0644856999861,2.67300240087783,None,1,,,,,,,001,2023-11-08_16h37.04.537,Oddball_task,2022.2.5,None,
target,soundFiles/1200Hz_-3dBFS_3s_44.1kHz.wav',t,2000,19,2,78,3,,,,,341.39831140002934,342.3966753000277,342.39540659999477,344.4100019999896,345.75929199997336,4.356384096205878,t,1,0.7036609000060707,,,,,,001,2023-11-08_16h37.04.537,Oddball_task,2022.2.5,None,
standard,soundFiles/1000Hz_-3dBFS_3s_44.1kHz.wav',None,1000,19,3,79,2,,,,,345.75929199997336,346.7595368999755,346.7586828000145,348.7744133999804,348.72249409998767,2.9648121718213813,None,1,,,,,,,001,2023-11-08_16h37.04.537,Oddball_task,2022.2.5,None,
standard,soundFiles/1000Hz_-3dBFS_3s_44.1kHz.wav',None,1000,20,0,80,0,,,,,348.7744133999804,349.7725465000258,349.7770428000018,351.7865107000107,353.0357135999948,4.262424188037325,None,1,,,,,,,001,2023-11-08_16h37.04.537,Oddball_task,2022.2.5,None,
standard,soundFiles/1000Hz_-3dBFS_3s_44.1kHz.wav',None,1000,20,1,81,1,,,,,353.0357135999948,354.0355394000071,354.03362760002494,356.0491062999936,356.1335280999774,3.0881785819319028,None,1,,,,,,,001,2023-11-08_16h37.04.537,Oddball_task,2022.2.5,None,
target,soundFiles/1200Hz_-3dBFS_3s_44.1kHz.wav',t,2000,20,2,82,3,,,,,356.1335280999774,357.1328164000297,357.1324039999978,359.1458329000161,359.67888510000193,3.5466229349758187,t,1,0.5165432999492623,,,,,,001,2023-11-08_16h37.04.537,Oddball_task,2022.2.5,None,
standard,soundFiles/1000Hz_-3dBFS_3s_44.1kHz.wav',None,1000,20,3,83,2,,,,,359.67888510000193,360.6798117000144,360.67992559997367,362.6936168000102,361.9441972000059,2.251145509187533,None,1,,,,,,,001,2023-11-08_16h37.04.537,Oddball_task,2022.2.5,None,
standard,soundFiles/1000Hz_-3dBFS_3s_44.1kHz.wav',None,1000,21,0,84,2,,,,,362.6936168000102,363.6925379000022,363.69297920000974,365.7092246999964,365.49087099998724,2.7914711057161963,None,1,,,,,,,001,2023-11-08_16h37.04.537,Oddball_task,2022.2.5,None,
standard,soundFiles/1000Hz_-3dBFS_3s_44.1kHz.wav',None,1000,21,1,85,0,,,,,365.7092246999964,366.7059030000237,366.7064178000088,368.7042132000206,367.83872100000735,2.120521216289826,None,1,,,,,,,001,2023-11-08_16h37.04.537,Oddball_task,2022.2.5,None,
standard,soundFiles/1000Hz_-3dBFS_3s_44.1kHz.wav',None,1000,21,2,86,1,,,,,368.7042132000206,369.70314559998224,369.7034815000021,371.70212769997306,373.11758939997526,4.401045258971472,None,1,,,,,,,001,2023-11-08_16h37.04.537,Oddball_task,2022.2.5,None,
target,soundFiles/1200Hz_-3dBFS_3s_44.1kHz.wav',t,2000,21,3,87,3,,,,,373.11758939997526,374.1156761000166,374.1170887000277,376.1306068000267,375.3327020999859,2.2109299837371896,t,1,0.5968635000172071,375.116460499994,,,,,001,2023-11-08_16h37.04.537,Oddball_task,2022.2.5,None,
standard,soundFiles/1000Hz_-3dBFS_3s_44.1kHz.wav',None,1000,22,0,88,2,,,,,376.1306068000267,377.1289732999867,377.1307348999777,379.1282177999965,380.0264058000175,3.882410203754947,None,1,,,,,,,001,2023-11-08_16h37.04.537,Oddball_task,2022.2.5,None,
target,soundFiles/1200Hz_-3dBFS_3s_44.1kHz.wav',t,2000,22,1,89,3,,,,,380.0264058000175,381.0261476999731,381.026246499992,383.0259104000288,382.19332820002455,2.155540510776899,t,1,0.8594081000192091,,,,,,001,2023-11-08_16h37.04.537,Oddball_task,2022.2.5,None,
standard,soundFiles/1000Hz_-3dBFS_3s_44.1kHz.wav',None,1000,22,2,90,1,,,,,383.0259104000288,384.0230787000037,384.0234685000265,386.0377136999741,386.6545248000184,3.6238108382903045,None,1,,,,,,,001,2023-11-08_16h37.04.537,Oddball_task,2022.2.5,None,
standard,soundFiles/1000Hz_-3dBFS_3s_44.1kHz.wav',None,1000,22,3,91,0,,,,,386.6545248000184,387.6535873999819,387.6544066000148,389.6700044000172,391.5834743999876,4.916947748225609,None,1,,,,,,,001,2023-11-08_16h37.04.537,Oddball_task,2022.2.5,None,
standard,soundFiles/1000Hz_-3dBFS_3s_44.1kHz.wav',None,1000,23,0,92,1,,,,,391.5834743999876,392.5827741000103,392.5815833999892,394.59577670000726,394.16318169998704,2.5762193439009478,None,1,,393.5818930999958,,,,,001,2023-11-08_16h37.04.537,Oddball_task,2022.2.5,None,
target,soundFiles/1200Hz_-3dBFS_3s_44.1kHz.wav',t,2000,23,1,93,3,,,,,394.59577670000726,395.5955644000205,395.59810450000225,397.59354799997527,397.04485649999697,2.439565574740593,t,1,0.7000891999923624,,,,,,001,2023-11-08_16h37.04.537,Oddball_task,2022.2.5,None,
standard,soundFiles/1000Hz_-3dBFS_3s_44.1kHz.wav',None,1000,23,2,94,2,,,,,397.59354799997527,398.59235410002293,398.5943233000231,400.6069742999971,399.82567749999,2.231558611378665,None,1,,,,,,,001,2023-11-08_16h37.04.537,Oddball_task,2022.2.5,None,
standard,soundFiles/1000Hz_-3dBFS_3s_44.1kHz.wav',None,1000,23,3,95,0,,,,,400.6069742999971,401.6059671000112,401.6092336999951,403.60712830000557,404.87046730000293,4.256166957681735,None,1,,,,,,,001,2023-11-08_16h37.04.537,Oddball_task,2022.2.5,None,
standard,soundFiles/1000Hz_-3dBFS_3s_44.1kHz.wav',None,1000,24,0,96,1,,,,,404.87046730000293,405.87110220000613,405.8713002000237,407.8835100000142,407.0011435999768,2.1312847134879624,None,1,,,,,,,001,2023-11-08_16h37.04.537,Oddball_task,2022.2.5,None,
target,soundFiles/1200Hz_-3dBFS_3s_44.1kHz.wav',t,2000,24,1,97,3,,,,,407.8835100000142,408.8844803000102,408.88436970000623,410.8996757999994,411.802058900008,3.9112109256178855,t,1,0.7153649000101723,,,,,,001,2023-11-08_16h37.04.537,Oddball_task,2022.2.5,None,
standard,soundFiles/1000Hz_-3dBFS_3s_44.1kHz.wav',None,1000,24,2,98,0,,,,,411.802058900008,412.7803089999943,412.78185009999436,414.7961637999979,415.661259400018,3.8567826458437375,None,1,,,,,,,001,2023-11-08_16h37.04.537,Oddball_task,2022.2.5,None,
standard,soundFiles/1000Hz_-3dBFS_3s_44.1kHz.wav',None,1000,24,3,99,2,,,,,415.661259400018,416.6422895999858,416.6449084999855,418.65812919999007,417.7250318999868,2.051857220635908,None,1,,,,,,,001,2023-11-08_16h37.04.537,Oddball_task,2022.2.5,None,
standard,soundFiles/1000Hz_-3dBFS_3s_44.1kHz.wav',None,1000,25,0,100,1,,,,,418.65812919999007,419.6564510000171,419.6572537999833,421.67182859999593,422.70596769999247,4.039856611283801,None,1,,,,,,,001,2023-11-08_16h37.04.537,Oddball_task,2022.2.5,None,
standard,soundFiles/1000Hz_-3dBFS_3s_44.1kHz.wav',None,1000,25,1,101,0,,,,,422.70596769999247,423.70408970001154,423.70242190002466,425.7183831000002,426.1508425999782,3.442603254118933,None,1,,,,,,,001,2023-11-08_16h37.04.537,Oddball_task,2022.2.5,None,
standard,soundFiles/1000Hz_-3dBFS_3s_44.1kHz.wav',None,1000,25,2,102,2,,,,,426.1508425999782,427.1492985999794,427.1520630999818,429.16453970002476,428.26629649999086,2.1104757433619623,None,1,,,,,,,001,2023-11-08_16h37.04.537,Oddball_task,2022.2.5,None,
target,soundFiles/1200Hz_-3dBFS_3s_44.1kHz.wav',t,2000,25,3,103,3,,,,,429.16453970002476,430.16300679999404,430.1638663999853,432.17748379998375,432.9277907999931,3.752267784549946,t,1,0.6234818999655545,,,,,,001,2023-11-08_16h37.04.537,Oddball_task,2022.2.5,None,
standard,soundFiles/1000Hz_-3dBFS_3s_44.1kHz.wav',None,1000,26,0,104,2,,,,,432.9277907999931,433.9103417000151,433.9123656000244,435.92411389999324,436.9585621000151,4.016834665624166,None,1,,,,,,,001,2023-11-08_16h37.04.537,Oddball_task,2022.2.5,None,
standard,soundFiles/1000Hz_-3dBFS_3s_44.1kHz.wav',None,1000,26,1,105,0,,,,,436.9585621000151,437.9390857000253,437.9404393999954,439.93754720001016,439.57051960000535,2.612772981042631,None,1,,,,,,,001,2023-11-08_16h37.04.537,Oddball_task,2022.2.5,None,
standard,soundFiles/1000Hz_-3dBFS_3s_44.1kHz.wav',None,1000,26,2,106,1,,,,,439.93754720001016,440.9407713999972,440.940713099984,442.95334379997803,443.96731699997326,4.022654977211023,None,1,,,,,,,001,2023-11-08_16h37.04.537,Oddball_task,2022.2.5,None,
target,soundFiles/1200Hz_-3dBFS_3s_44.1kHz.wav',t,2000,26,3,107,3,,,,,443.96731699997326,444.96638410002925,444.96627880000744,446.980353299994,448.28040510002756,4.310632939497414,t,1,0.6140838999999687,445.9674372000154,,,,,001,2023-11-08_16h37.04.537,Oddball_task,2022.2.5,None,
standard,soundFiles/1000Hz_-3dBFS_3s_44.1kHz.wav',None,1000,27,0,108,0,,,,,448.28040510002756,449.2803367000306,449.27810949997513,451.29431610001484,452.25919499999145,3.9804269914014916,None,1,,450.2825026999926,,,,,001,2023-11-08_16h37.04.537,Oddball_task,2022.2.5,None,
standard,soundFiles/1000Hz_-3dBFS_3s_44.1kHz.wav',None,1000,27,1,109,2,,,,,452.25919499999145,453.24387220002245,453.24664290001385,455.2559610999888,455.77438610000536,3.5030153948507383,None,1,,,,,,,001,2023-11-08_16h37.04.537,Oddball_task,2022.2.5,None,
target,soundFiles/1200Hz_-3dBFS_3s_44.1kHz.wav',t,2000,27,2,110,3,,,,,455.77438610000536,456.77142579999054,456.77348599998516,458.7698916000081,457.93645360000664,2.1577736395119986,t,1,0.6543231999967247,,,,,,001,2023-11-08_16h37.04.537,Oddball_task,2022.2.5,None,
standard,soundFiles/1000Hz_-3dBFS_3s_44.1kHz.wav',None,1000,27,3,111,1,,,,,458.7698916000081,459.7715424000053,459.7697620999767,461.78365190001205,460.8562836999772,2.0689161772392137,None,1,,,,,,,001,2023-11-08_16h37.04.537,Oddball_task,2022.2.5,None,
standard,soundFiles/1000Hz_-3dBFS_3s_44.1kHz.wav',None,1000,28,0,112,1,,,,,461.78365190001205,462.78716720000375,462.7849122999702,464.798234899994,465.4334609999787,3.6479727776714412,None,1,,,,,,,001,2023-11-08_16h37.04.537,Oddball_task,2022.2.5,None,
standard,soundFiles/1000Hz_-3dBFS_3s_44.1kHz.wav',None,1000,28,1,113,0,,,,,465.4334609999787,466.42987779999385,466.43265779999786,468.44703939999454,468.34423599997535,2.9046842479000796,None,1,,,,,,,001,2023-11-08_16h37.04.537,Oddball_task,2022.2.5,None,
target,soundFiles/1200Hz_-3dBFS_3s_44.1kHz.wav',t,2000,28,2,114,3,,,,,468.44703939999454,469.4285364000243,469.428689099988,471.4422049000277,470.97586409997893,2.5281136117449816,t,1,0.7226315999869257,,,,,,001,2023-11-08_16h37.04.537,Oddball_task,2022.2.5,None,
standard,soundFiles/1000Hz_-3dBFS_3s_44.1kHz.wav',None,1000,28,3,115,2,,,,,471.4422049000277,472.44047939998563,472.44080230002294,474.4564245999791,474.5586023000069,3.1035505858838675,None,1,,,,,,,001,2023-11-08_16h37.04.537,Oddball_task,2022.2.5,None,
target,soundFiles/1200Hz_-3dBFS_3s_44.1kHz.wav',t,2000,29,0,116,3,,,,,474.5586023000069,475.5544992000214,475.55477200002645,477.56924739998067,477.5039956999826,2.935235904635295,t,1,0.5783117999671958,,,,,,001,2023-11-08_16h37.04.537,Oddball_task,2022.2.5,None,
standard,soundFiles/1000Hz_-3dBFS_3s_44.1kHz.wav',None,1000,29,1,117,0,,,,,477.56924739998067,478.5697027000133,478.5697014000267,480.58409339998616,480.80059040000197,3.2185635002422397,None,1,,,,,,,001,2023-11-08_16h37.04.537,Oddball_task,2022.2.5,None,
standard,soundFiles/1000Hz_-3dBFS_3s_44.1kHz.wav',None,1000,29,2,118,1,,,,,480.80059040000197,481.7839265000075,481.78357709998966,483.80124240001896,483.3485782999778,2.5333795791989306,None,1,,,,,,,001,2023-11-08_16h37.04.537,Oddball_task,2022.2.5,None,
standard,soundFiles/1000Hz_-3dBFS_3s_44.1kHz.wav',None,1000,29,3,119,2,,,,,483.80124240001896,484.79636699997354,484.79706969999245,486.7954305000021,488.5430419999757,4.733262283841087,None,1,,,,,,,001,2023-11-08_16h37.04.537,Oddball_task,2022.2.5,None,
standard,soundFiles/1000Hz_-3dBFS_3s_44.1kHz.wav',None,1000,30,0,120,2,,,,,488.5430419999757,489.5407865999732,489.5435443999828,491.55563870002516,491.6888004000066,3.1373553372500247,None,1,,,,,,,001,2023-11-08_16h37.04.537,Oddball_task,2022.2.5,None,
target,soundFiles/1200Hz_-3dBFS_3s_44.1kHz.wav',t,2000,30,1,121,3,,,,,491.6888004000066,492.68770920002135,492.6897040999844,494.68621580000035,494.9703860000009,3.2787193118219267,t,1,0.6633261000388302,,,,,,001,2023-11-08_16h37.04.537,Oddball_task,2022.2.5,None,
standard,soundFiles/1000Hz_-3dBFS_3s_44.1kHz.wav',None,1000,30,2,122,1,,,,,494.9703860000009,495.95108329999493,495.95523789998845,497.96599390002666,497.80105870001717,2.8165068986805126,None,1,,,,,,,001,2023-11-08_16h37.04.537,Oddball_task,2022.2.5,None,
standard,soundFiles/1000Hz_-3dBFS_3s_44.1kHz.wav',None,1000,30,3,123,0,,,,,497.96599390002666,498.96726740000304,498.96571450001795,500.9810525000212,501.66477520001354,3.694369877876779,None,1,,,,,,,001,2023-11-08_16h37.04.537,Oddball_task,2022.2.5,None,
standard,soundFiles/1000Hz_-3dBFS_3s_44.1kHz.wav',None,1000,31,0,124,2,,,,,501.66477520001354,502.66155319998506,502.66297369999813,504.65986299997894,504.9953201999888,3.3242277576705153,None,1,,,,,,,001,2023-11-08_16h37.04.537,Oddball_task,2022.2.5,None,
standard,soundFiles/1000Hz_-3dBFS_3s_44.1kHz.wav',None,1000,31,1,125,0,,,,,504.9953201999888,505.99363829998765,505.99445999998136,508.00882450002246,509.80635869997786,4.805427382305729,None,1,,,,,,,001,2023-11-08_16h37.04.537,Oddball_task,2022.2.5,None,
target,soundFiles/1200Hz_-3dBFS_3s_44.1kHz.wav',t,2000,31,2,126,3,,,,,509.80635869997786,510.80460209999,510.80455899997617,512.8193074000301,512.7538592999917,2.949565072937232,t,1,0.8386882999911904,,,,,,001,2023-11-08_16h37.04.537,Oddball_task,2022.2.5,None,
standard,soundFiles/1000Hz_-3dBFS_3s_44.1kHz.wav',None,1000,31,3,127,1,,,,,512.8193074000301,513.8193353000097,513.8232585999882,515.8336138000013,515.1173393999925,2.297926933578144,None,1,,,,,,,001,2023-11-08_16h37.04.537,Oddball_task,2022.2.5,None,
standard,soundFiles/1000Hz_-3dBFS_3s_44.1kHz.wav',None,1000,32,0,128,1,,,,,515.8336138000013,516.8150169000146,516.817291900015,518.8301871999865,520.1128286999883,4.269866118720095,None,1,,,,,,,001,2023-11-08_16h37.04.537,Oddball_task,2022.2.5,None,
target,soundFiles/1200Hz_-3dBFS_3s_44.1kHz.wav',t,2000,32,1,129,3,,,,,520.1128286999883,521.1126647000201,521.1120164999971,523.1274301999947,524.2923942999914,4.173888925554156,t,1,0.7693207999691367,,,,,,001,2023-11-08_16h37.04.537,Oddball_task,2022.2.5,None,
standard,soundFiles/1000Hz_-3dBFS_3s_44.1kHz.wav',None,1000,32,2,130,0,,,,,524.2923942999914,525.2760508999927,525.2762187000131,527.2897780999774,527.8550735000172,3.5503700800842872,None,1,,,,,,,001,2023-11-08_16h37.04.537,Oddball_task,2022.2.5,None,
standard,soundFiles/1000Hz_-3dBFS_3s_44.1kHz.wav',None,1000,32,3,131,2,,,,,527.8550735000172,528.8537982000271,528.8551243000198,530.8753143000067,532.5020676000277,4.641056543711225,None,1,,,,,,,001,2023-11-08_16h37.04.537,Oddball_task,2022.2.5,None,
standard,soundFiles/1000Hz_-3dBFS_3s_44.1kHz.wav',None,1000,33,0,132,1,,,,,532.5020676000277,533.4996112000081,533.5002255999949,535.4992783999769,535.7512024000171,3.238273510282723,None,1,,,,,,,001,2023-11-08_16h37.04.537,Oddball_task,2022.2.5,None,
standard,soundFiles/1000Hz_-3dBFS_3s_44.1kHz.wav',None,1000,33,1,133,0,,,,,535.7512024000171,536.7476816999842,536.7473001000122,538.7625406000298,540.0775117999874,4.326587172493896,None,1,,,,,,,001,2023-11-08_16h37.04.537,Oddball_task,2022.2.5,None,
standard,soundFiles/1000Hz_-3dBFS_3s_44.1kHz.wav',None,1000,33,2,134,2,,,,,540.0775117999874,541.0766801999998,541.0762179999962,543.0910589999985,543.7413769999985,3.6594529678981647,None,1,,,,,,,001,2023-11-08_16h37.04.537,Oddball_task,2022.2.5,None,
target,soundFiles/1200Hz_-3dBFS_3s_44.1kHz.wav',t,2000,33,3,135,3,,,,,543.7413769999985,544.7251743000234,544.7250093000126,546.7378028000239,548.270400599984,4.514660534614948,t,1,0.9099869999918155,,,,,,001,2023-11-08_16h37.04.537,Oddball_task,2022.2.5,None,
standard,soundFiles/1000Hz_-3dBFS_3s_44.1kHz.wav',None,1000,34,0,136,0,,,,,548.270400599984,549.273260499991,549.2679391000071,551.2848772000289,553.148039599997,4.876251791390976,None,1,,,,,,,001,2023-11-08_16h37.04.537,Oddball_task,2022.2.5,None,
standard,soundFiles/1000Hz_-3dBFS_3s_44.1kHz.wav',None,1000,34,1,137,1,,,,,553.148039599997,554.1491881000111,554.1481906000059,556.1617916999967,558.0152476999792,4.851595653063738,None,1,,,,,,,001,2023-11-08_16h37.04.537,Oddball_task,2022.2.5,None,
target,soundFiles/1200Hz_-3dBFS_3s_44.1kHz.wav',t,2000,34,2,138,3,,,,,558.0152476999792,559.0102077000192,559.0104452999891,561.0242100000032,560.3248425999773,2.3008457118742043,t,1,0.7213926000404172,,,,,,001,2023-11-08_16h37.04.537,Oddball_task,2022.2.5,None,
standard,soundFiles/1000Hz_-3dBFS_3s_44.1kHz.wav',None,1000,34,3,139,2,,,,,561.0242100000032,562.0237980000093,562.0240311000031,564.0377770999912,565.1884305999847,4.159080681016505,None,1,,,,,,,001,2023-11-08_16h37.04.537,Oddball_task,2022.2.5,None,
target,soundFiles/1200Hz_-3dBFS_3s_44.1kHz.wav',t,2000,35,0,140,3,,,,,565.1884305999847,566.1690141999861,566.1711546000093,568.1844868999906,567.2531044000061,2.0564142727953336,t,1,0.640758800029289,,,,,,001,2023-11-08_16h37.04.537,Oddball_task,2022.2.5,None,
standard,soundFiles/1000Hz_-3dBFS_3s_44.1kHz.wav',None,1000,35,1,141,0,,,,,568.1844868999906,569.1838424999733,569.1850148000173,571.1975517999963,571.1831801999942,2.988972849781775,None,1,,,,,,,001,2023-11-08_16h37.04.537,Oddball_task,2022.2.5,None,
standard,soundFiles/1000Hz_-3dBFS_3s_44.1kHz.wav',None,1000,35,2,142,2,,,,,571.1975517999963,572.198386300006,572.1985883999965,574.2134067000006,576.1268168999813,4.915979092705763,None,1,,,,,,,001,2023-11-08_16h37.04.537,Oddball_task,2022.2.5,None,
standard,soundFiles/1000Hz_-3dBFS_3s_44.1kHz.wav',None,1000,35,3,143,1,,,,,576.1268168999813,577.1273276000284,577.1274230000214,579.141858100018,578.3920406000107,2.2486660606648736,None,1,,,,,,,001,2023-11-08_16h37.04.537,Oddball_task,2022.2.5,None,
target,soundFiles/1200Hz_-3dBFS_3s_44.1kHz.wav',t,2000,36,0,144,3,,,,,579.141858100018,580.1407843999914,580.1436533999746,582.1549270999967,583.2868370999931,4.141221214850114,t,1,0.5767819000175223,,,,,,001,2023-11-08_16h37.04.537,Oddball_task,2022.2.5,None,
standard,soundFiles/1000Hz_-3dBFS_3s_44.1kHz.wav',None,1000,36,1,145,0,,,,,583.2868370999931,584.2858714999747,584.2873486000113,586.3015326000168,585.5353538999916,2.236941734135585,None,1,,,,,,,001,2023-11-08_16h37.04.537,Oddball_task,2022.2.5,None,
standard,soundFiles/1000Hz_-3dBFS_3s_44.1kHz.wav',None,1000,36,2,146,2,,,,,586.3015326000168,587.2991775000119,587.3006557999994,589.3001818999765,588.8820764999837,2.5668284941520225,None,1,,,,,,,001,2023-11-08_16h37.04.537,Oddball_task,2022.2.5,None,
standard,soundFiles/1000Hz_-3dBFS_3s_44.1kHz.wav',None,1000,36,3,147,1,,,,,589.3001818999765,590.2977549000061,590.2991670000134,592.3129570999881,593.3104164000251,3.9998363954890386,None,1,,,,,,,001,2023-11-08_16h37.04.537,Oddball_task,2022.2.5,None,
target,soundFiles/1200Hz_-3dBFS_3s_44.1kHz.wav',t,2000,37,0,148,3,,,,,593.3104164000251,594.3106824000133,594.3097869000281,596.324103299994,596.5092668000143,3.184396446632065,t,1,1.069072899990715,,,,,,001,2023-11-08_16h37.04.537,Oddball_task,2022.2.5,None,
standard,soundFiles/1000Hz_-3dBFS_3s_44.1kHz.wav',None,1000,37,1,149,0,,,,,596.5092668000143,597.5077434999985,597.5060239000246,599.5262242999743,599.9560551000177,3.4417708301664387,None,1,,,,,,,001,2023-11-08_16h37.04.537,Oddball_task,2022.2.5,None,
standard,soundFiles/1000Hz_-3dBFS_3s_44.1kHz.wav',None,1000,37,2,150,2,,,,,599.9560551000177,600.957854999986,600.9556466000155,602.9701941999956,604.8518181000254,4.87994535991985,None,1,,,,,,,001,2023-11-08_16h37.04.537,Oddball_task,2022.2.5,None,
standard,soundFiles/1000Hz_-3dBFS_3s_44.1kHz.wav',None,1000,37,3,151,1,,,,,604.8518181000254,605.8325861999765,605.833979200013,607.8478269000188,608.5301128000137,3.6770605361851016,None,1,,,,,,,001,2023-11-08_16h37.04.537,Oddball_task,2022.2.5,None,
target,soundFiles/1200Hz_-3dBFS_3s_44.1kHz.wav',t,2000,38,0,152,3,,,,,608.5301128000137,609.5291222999804,609.528662499995,611.5291642000084,611.0291542999912,2.488025351311384,t,1,0.6223517000325955,,,,,,001,2023-11-08_16h37.04.537,Oddball_task,2022.2.5,None,
standard,soundFiles/1000Hz_-3dBFS_3s_44.1kHz.wav',None,1000,38,1,153,2,,,,,611.5291642000084,612.5274143000133,612.528023400018,614.543555399985,614.0411813000101,2.5134585829835605,None,1,,,,,,,001,2023-11-08_16h37.04.537,Oddball_task,2022.2.5,None,
standard,soundFiles/1000Hz_-3dBFS_3s_44.1kHz.wav',None,1000,38,2,154,1,,,,,614.543555399985,615.5395158000174,615.541086900013,617.5416475000093,617.8374711999786,3.2781978736442388,None,1,,,,,,,001,2023-11-08_16h37.04.537,Oddball_task,2022.2.5,None,
standard,soundFiles/1000Hz_-3dBFS_3s_44.1kHz.wav',None,1000,38,3,155,0,,,,,617.8374711999786,618.836945499992,618.8372324999888,620.8535459000268,620.553748300008,2.7001392991723456,None,1,,,,,,,001,2023-11-08_16h37.04.537,Oddball_task,2022.2.5,None,
target,soundFiles/1200Hz_-3dBFS_3s_44.1kHz.wav',t,2000,39,0,156,3,,,,,620.8535459000268,621.8527835999848,621.8510342000169,623.8655676000053,623.3499811000074,2.4903756692618813,t,1,0.6708194999955595,,,,,,001,2023-11-08_16h37.04.537,Oddball_task,2022.2.5,None,
standard,soundFiles/1000Hz_-3dBFS_3s_44.1kHz.wav',None,1000,39,1,157,2,,,,,623.8655676000053,624.8696173999924,624.8649662999902,626.8812077000039,626.8305834999774,2.9521536770386954,None,1,,,,,,,001,2023-11-08_16h37.04.537,Oddball_task,2022.2.5,None,
standard,soundFiles/1000Hz_-3dBFS_3s_44.1kHz.wav',None,1000,39,2,158,0,,,,,626.8812077000039,627.8805224000243,627.8782220999943,629.8934044999769,631.363659900031,4.468859428210031,None,1,,,,,,,001,2023-11-08_16h37.04.537,Oddball_task,2022.2.5,None,
standard,soundFiles/1000Hz_-3dBFS_3s_44.1kHz.wav',None,1000,39,3,159,1,,,,,631.363659900031,632.3590777000063,632.3594766999828,634.3738995000022,635.4379308000207,4.06086487290705,None,1,,,,,,,001,2023-11-08_16h37.04.537,Oddball_task,2022.2.5,None,
target,soundFiles/1200Hz_-3dBFS_3s_44.1kHz.wav',t,2000,40,0,160,3,,,,,635.4379308000207,636.4380450000172,636.438636200002,638.4525574999861,638.0201519000111,2.575603123217061,t,1,1.0903894000221044,,,,,,001,2023-11-08_16h37.04.537,Oddball_task,2022.2.5,None,
standard,soundFiles/1000Hz_-3dBFS_3s_44.1kHz.wav',None,1000,40,1,161,0,,,,,638.4525574999861,639.4513907000073,639.4539435000275,641.4496504000272,642.4308892000117,3.97739372440198,None,1,,,,,,,001,2023-11-08_16h37.04.537,Oddball_task,2022.2.5,None,
standard,soundFiles/1000Hz_-3dBFS_3s_44.1kHz.wav',None,1000,40,2,162,1,,,,,642.4308892000117,643.4301699000061,643.4308016000083,645.446022899996,644.5982714000274,2.1669583030319597,None,1,,,,,,,001,2023-11-08_16h37.04.537,Oddball_task,2022.2.5,None,
standard,soundFiles/1000Hz_-3dBFS_3s_44.1kHz.wav',None,1000,40,3,163,2,,,,,645.446022899996,646.4458286000299,646.444316600007,648.460046000022,648.8103482000297,3.3484651348227485,None,1,,,,,,,001,2023-11-08_16h37.04.537,Oddball_task,2022.2.5,None,
target,soundFiles/1200Hz_-3dBFS_3s_44.1kHz.wav',t,2000,41,0,164,3,,,,,648.8103482000297,649.7910256999894,649.7948504999746,651.7903408000129,651.3227624000283,2.505306962972598,t,1,0.5530013999668881,,,,,,001,2023-11-08_16h37.04.537,Oddball_task,2022.2.5,None,
standard,soundFiles/1000Hz_-3dBFS_3s_44.1kHz.wav',None,1000,41,1,165,2,,,,,651.7903408000129,652.78883580002,652.7912300999975,654.7859222000116,655.9200830999762,4.1178769249507745,None,1,,,,,,,001,2023-11-08_16h37.04.537,Oddball_task,2022.2.5,None,
standard,soundFiles/1000Hz_-3dBFS_3s_44.1kHz.wav',None,1000,41,2,166,0,,,,,655.9200830999762,656.9179917000001,656.9191330999835,658.9154186000233,660.8995429999777,4.967002737395308,None,1,,,,,,,001,2023-11-08_16h37.04.537,Oddball_task,2022.2.5,None,
standard,soundFiles/1000Hz_-3dBFS_3s_44.1kHz.wav',None,1000,41,3,167,1,,,,,660.8995429999777,661.8968232999905,661.8968794999761,663.9121331999777,665.0946850000182,4.189639854051878,None,1,,,,,,,001,2023-11-08_16h37.04.537,Oddball_task,2022.2.5,None,
standard,soundFiles/1000Hz_-3dBFS_3s_44.1kHz.wav',None,1000,42,0,168,1,,,,,665.0946850000182,666.0759351999732,666.0799812000129,668.0913016999839,669.923370399978,4.8244578350923035,None,1,,,,,,,001,2023-11-08_16h37.04.537,Oddball_task,2022.2.5,None,
target,soundFiles/1200Hz_-3dBFS_3s_44.1kHz.wav',t,2000,42,1,169,3,,,,,669.923370399978,670.9051074000308,670.9069450000185,672.9213873000117,673.3376489999937,3.404546174209871,t,1,0.8675054999766871,,,,,,001,2023-11-08_16h37.04.537,Oddball_task,2022.2.5,None,
standard,soundFiles/1000Hz_-3dBFS_3s_44.1kHz.wav',None,1000,42,2,170,2,,,,,673.3376489999937,674.3376028999919,674.3353160000057,676.3509830000112,677.3999507999979,4.0518833014128735,None,1,,,,,,,001,2023-11-08_16h37.04.537,Oddball_task,2022.2.5,None,
standard,soundFiles/1000Hz_-3dBFS_3s_44.1kHz.wav',None,1000,42,3,171,0,,,,,677.3999507999979,678.3845418000128,678.3820903999964,680.3956215999788,679.4804903999902,2.0674635941849253,None,1,,,,,,,001,2023-11-08_16h37.04.537,Oddball_task,2022.2.5,None,
standard,soundFiles/1000Hz_-3dBFS_3s_44.1kHz.wav',None,1000,43,0,172,2,,,,,680.3956215999788,681.3946192000294,681.3956293000025,683.3957826999831,682.7270839000121,2.3237541375583115,None,1,,682.3941556999926,,,,,001,2023-11-08_16h37.04.537,Oddball_task,2022.2.5,None,
standard,soundFiles/1000Hz_-3dBFS_3s_44.1kHz.wav',None,1000,43,1,173,0,,,,,683.3957826999831,684.3930241999915,684.3932324999711,686.4062186999945,688.0552708000178,4.648549617235483,None,1,,,,,,,001,2023-11-08_16h37.04.537,Oddball_task,2022.2.5,None,
standard,soundFiles/1000Hz_-3dBFS_3s_44.1kHz.wav',None,1000,43,2,174,1,,,,,688.0552708000178,689.0544166999753,689.0561524000019,691.0698459999985,692.5857377999928,4.530145999398346,None,1,,,,,,,001,2023-11-08_16h37.04.537,Oddball_task,2022.2.5,None,
target,soundFiles/1200Hz_-3dBFS_3s_44.1kHz.wav',t,2000,43,3,175,3,,,,,692.5857377999928,693.5675949000288,693.569866200001,695.5815720999963,694.9826699999976,2.3823038252925297,t,1,0.6759941999916919,,,,,,001,2023-11-08_16h37.04.537,Oddball_task,2022.2.5,None,
standard,soundFiles/1000Hz_-3dBFS_3s_44.1kHz.wav',None,1000,44,0,176,0,,,,,695.5815720999963,696.5824127999949,696.5823953000014,698.5978599999798,700.1284047000227,4.539584966068432,None,1,,,,,,,001,2023-11-08_16h37.04.537,Oddball_task,2022.2.5,None,
target,soundFiles/1200Hz_-3dBFS_3s_44.1kHz.wav',t,2000,44,1,177,3,,,,,700.1284047000227,701.1284380999859,701.1279951000121,703.1431563000078,702.7110605000053,2.5708729941373525,t,1,0.7227385999867693,,,,,,001,2023-11-08_16h37.04.537,Oddball_task,2022.2.5,None,
standard,soundFiles/1000Hz_-3dBFS_3s_44.1kHz.wav',None,1000,44,2,178,2,,,,,703.1431563000078,704.1409194000298,704.140103300009,706.1406681999797,705.2410152999801,2.0825316883447247,None,1,,,,,,,001,2023-11-08_16h37.04.537,Oddball_task,2022.2.5,None,
standard,soundFiles/1000Hz_-3dBFS_3s_44.1kHz.wav',None,1000,44,3,179,1,,,,,706.1406681999797,707.1389207000029,707.1371831000084,709.1575288000167,711.0020878000068,4.85675371436826,None,1,,,,,,,001,2023-11-08_16h37.04.537,Oddball_task,2022.2.5,None,
standard,soundFiles/1000Hz_-3dBFS_3s_44.1kHz.wav',None,1000,45,0,180,2,,,,,711.0020878000068,712.0002279999899,711.9997727999813,714.0145685999887,714.9847534000291,3.9738857431424046,None,1,,,,,,,001,2023-11-08_16h37.04.537,Oddball_task,2022.2.5,None,
target,soundFiles/1200Hz_-3dBFS_3s_44.1kHz.wav',t,2000,45,1,181,3,,,,,714.9847534000291,715.9793534000055,715.9805871999939,717.995874300017,719.3432103000232,4.3571268190553685,t,1,0.6554507000255398,,,,,,001,2023-11-08_16h37.04.537,Oddball_task,2022.2.5,None,
standard,soundFiles/1000Hz_-3dBFS_3s_44.1kHz.wav',None,1000,45,2,182,0,,,,,719.3432103000232,720.3423483999795,720.3429333999753,722.3592965999851,722.5424898000201,3.181119036715126,None,1,,,,,,,001,2023-11-08_16h37.04.537,Oddball_task,2022.2.5,None,
standard,soundFiles/1000Hz_-3dBFS_3s_44.1kHz.wav',None,1000,45,3,183,1,,,,,722.5424898000201,723.5396679000114,723.5400685000001,725.5374628999853,725.9212518000277,3.377530335366941,None,1,,,,,,,001,2023-11-08_16h37.04.537,Oddball_task,2022.2.5,None,
standard,soundFiles/1000Hz_-3dBFS_3s_44.1kHz.wav',None,1000,46,0,184,2,,,,,725.9212518000277,726.9205442999955,726.9196320999996,728.9335132000269,730.367329199973,4.438578850129725,None,1,,,,,,,001,2023-11-08_16h37.04.537,Oddball_task,2022.2.5,None,
target,soundFiles/1200Hz_-3dBFS_3s_44.1kHz.wav',t,2000,46,1,185,3,,,,,730.367329199973,731.3484589,731.3522289999761,733.3638329000096,732.7312405999983,2.3555904803736327,t,1,0.6182602000189945,,,,,,001,2023-11-08_16h37.04.537,Oddball_task,2022.2.5,None,
standard,soundFiles/1000Hz_-3dBFS_3s_44.1kHz.wav',None,1000,46,2,186,1,,,,,733.3638329000096,734.3451526000281,734.3492856999743,736.3457774000126,735.4634825999965,2.085730004634567,None,1,,,,,,,001,2023-11-08_16h37.04.537,Oddball_task,2022.2.5,None,
standard,soundFiles/1000Hz_-3dBFS_3s_44.1kHz.wav',None,1000,46,3,187,0,,,,,736.3457774000126,737.3446519999998,737.3436576000182,739.3572963000042,739.675045299984,3.3189942228105282,None,1,,,,,,,001,2023-11-08_16h37.04.537,Oddball_task,2022.2.5,None,
standard,soundFiles/1000Hz_-3dBFS_3s_44.1kHz.wav',None,1000,47,0,188,0,,,,,739.675045299984,740.6559941999731,740.6593668000074,742.6577576000127,744.4080368999857,4.732279233755317,None,1,,,,,,,001,2023-11-08_16h37.04.537,Oddball_task,2022.2.5,None,
standard,soundFiles/1000Hz_-3dBFS_3s_44.1kHz.wav',None,1000,47,1,189,1,,,,,744.4080368999857,745.4028433000203,745.4015244000126,747.417265600001,748.7826805000077,4.368077105494479,None,1,,,,,,,001,2023-11-08_16h37.04.537,Oddball_task,2022.2.5,None,
standard,soundFiles/1000Hz_-3dBFS_3s_44.1kHz.wav',None,1000,47,2,190,2,,,,,748.7826805000077,749.7824221000192,749.7819696999737,751.7977419000235,752.3306156999897,3.535642153065071,None,1,,,,,,,001,2023-11-08_16h37.04.537,Oddball_task,2022.2.5,None,
target,soundFiles/1200Hz_-3dBFS_3s_44.1kHz.wav',t,2000,47,3,191,3,,,,,752.3306156999897,753.3274737999891,753.3307785999729,755.3268738000188,754.7924902000232,2.453709570963233,t,1,0.6554285999736749,,,,,,001,2023-11-08_16h37.04.537,Oddball_task,2022.2.5,None,
standard,soundFiles/1000Hz_-3dBFS_3s_44.1kHz.wav',None,1000,48,0,192,0,,,,,755.3268738000188,756.3267025999958,756.3264841999859,758.3406078999978,757.8599409000017,2.5294387639210845,None,1,,,,,,,001,2023-11-08_16h37.04.537,Oddball_task,2022.2.5,None,
standard,soundFiles/1000Hz_-3dBFS_3s_44.1kHz.wav',None,1000,48,1,193,1,,,,,758.3406078999978,759.3385598000023,759.3395994000253,761.3367213000311,761.7550530000008,3.399269139783311,None,1,,,,,,,001,2023-11-08_16h37.04.537,Oddball_task,2022.2.5,None,
standard,soundFiles/1000Hz_-3dBFS_3s_44.1kHz.wav',None,1000,48,2,194,2,,,,,761.7550530000008,762.7367746999953,762.7385258000228,764.7533972000238,766.1672270999989,4.400076764831431,None,1,,,,,,,001,2023-11-08_16h37.04.537,Oddball_task,2022.2.5,None,
target,soundFiles/1200Hz_-3dBFS_3s_44.1kHz.wav',t,2000,48,3,195,3,,,,,766.1672270999989,767.1509764000075,767.1501862000092,769.1636259999941,768.9132325000246,2.744495752157048,t,1,0.5513803999638185,,,,,,001,2023-11-08_16h37.04.537,Oddball_task,2022.2.5,None,
standard,soundFiles/1000Hz_-3dBFS_3s_44.1kHz.wav',None,1000,49,0,196,2,,,,,769.1636259999941,770.1467100000009,770.1473712999956,772.1435878999764,773.0106209000223,3.8476063365455166,None,1,,,,,,,001,2023-11-08_16h37.04.537,Oddball_task,2022.2.5,None,
standard,soundFiles/1000Hz_-3dBFS_3s_44.1kHz.wav',None,1000,49,1,197,0,,,,,773.0106209000223,774.0085730000283,774.0090268000146,776.0068911000271,777.1565433000214,4.1396022883316,None,1,,,,,,,001,2023-11-08_16h37.04.537,Oddball_task,2022.2.5,None,
standard,soundFiles/1000Hz_-3dBFS_3s_44.1kHz.wav',None,1000,49,2,198,1,,,,,777.1565433000214,778.1432666999754,778.1413289999706,780.1541191000142,779.8206798000028,2.6606135989837885,None,1,,,,,,,001,2023-11-08_16h37.04.537,Oddball_task,2022.2.5,None,
target,soundFiles/1200Hz_-3dBFS_3s_44.1kHz.wav',t,2000,49,3,199,3,,,,,780.1541191000142,781.1347486000159,781.1387676000246,783.1509780000197,783.7173396000289,3.5595489334425534,t,1,0.7277101000072435,,,,,,001,2023-11-08_16h37.04.537,Oddball_task,2022.2.5,None,
,,,,,,,,,,,,,,,,,,,,,,783.7173396000289,786.7136286000023,786.732587800012,,,,,,,
