trial,file,corrAns,tone,trials_2.thisRepN,trials_2.thisTrialN,trials_2.thisN,trials_2.thisIndex,instructions.started,key_resp_1.started,key_resp_1.keys,key_resp_1.rt,fixation.started,response.started,sound_1.started,fixation.stopped,response.stopped,FixDur,response.keys,response.corr,response.rt,sound_1.stopped,participant,session,date,expName,psychopyVersion,frameRate,
,,,,,,,,11.860043200023938,11.860043200023938,space,4.421647400013171,,,,,,,,,,,,001,2023-10-31_11h36.22.448,Oddball_task,2022.2.5,59.92800247981312,
standard,soundFiles/1000Hz_-3dBFS_3s_44.1kHz.wav',None,1000,0,0,0,2,,,,,16.341398200020194,17.307714299997315,17.308665949990974,18.508155599993188,19.30841260001762,2.160931315474812,None,1,,,,001,2023-10-31_11h36.22.448,Oddball_task,2022.2.5,59.92800247981312,
target,soundFiles/1200Hz_-3dBFS_3s_44.1kHz.wav',t,2000,0,1,1,3,,,,,19.30841260001762,20.309579099994153,20.308403150027154,21.658728600014,22.325728200026788,2.3402453205390774,t,1,1.1320405000005849,,,001,2023-10-31_11h36.22.448,Oddball_task,2022.2.5,59.92800247981312,
standard,soundFiles/1000Hz_-3dBFS_3s_44.1kHz.wav',None,1000,0,2,2,0,,,,,22.325728200026788,23.32471340004122,23.324866250006018,25.14148859999841,25.325378900044598,2.8069833708714103,None,1,,,,001,2023-10-31_11h36.22.448,Oddball_task,2022.2.5,59.92800247981312,
standard,soundFiles/1000Hz_-3dBFS_3s_44.1kHz.wav',None,1000,0,3,3,1,,,,,25.325378900044598,26.324722599994857,26.32467735002283,29.991863700037356,28.325362500036135,4.6616267520689,None,1,,27.32506140001351,,001,2023-10-31_11h36.22.448,Oddball_task,2022.2.5,59.92800247981312,
target,soundFiles/1200Hz_-3dBFS_3s_44.1kHz.wav',t,2000,1,0,4,3,,,,,29.991863700037356,30.99156660004519,30.992220050038306,32.741718400036916,32.992518300015945,2.7493045454533056,t,1,0.7384970000130124,,,001,2023-10-31_11h36.22.448,Oddball_task,2022.2.5,59.92800247981312,
standard,soundFiles/1000Hz_-3dBFS_3s_44.1kHz.wav',None,1000,1,1,5,0,,,,,32.992518300015945,33.99188710004091,33.99109275001101,35.67417270003352,35.991145400039386,2.671225083844847,None,1,,,,001,2023-10-31_11h36.22.448,Oddball_task,2022.2.5,59.92800247981312,
standard,soundFiles/1000Hz_-3dBFS_3s_44.1kHz.wav',None,1000,1,2,6,2,,,,,35.991145400039386,36.99167870002566,36.99188494998962,40.80832070001634,38.99132390000159,4.803493923986576,None,1,,,,001,2023-10-31_11h36.22.448,Oddball_task,2022.2.5,59.92800247981312,
standard,soundFiles/1000Hz_-3dBFS_3s_44.1kHz.wav',None,1000,1,3,7,1,,,,,40.80832070001634,41.80831220000982,41.80865265000612,43.97517930000322,43.81022079999093,3.1570926171945564,None,1,,,,001,2023-10-31_11h36.22.448,Oddball_task,2022.2.5,59.92800247981312,
target,soundFiles/1200Hz_-3dBFS_3s_44.1kHz.wav',t,2000,2,0,8,3,,,,,43.97517930000322,44.97502750001149,44.97449375004508,47.85857830004534,46.97567140002502,3.8754880232278652,t,1,0.6507161000045016,,,001,2023-10-31_11h36.22.448,Oddball_task,2022.2.5,59.92800247981312,
standard,soundFiles/1000Hz_-3dBFS_3s_44.1kHz.wav',None,1000,2,1,9,0,,,,,47.85857830004534,48.857546400045976,48.85856315001147,50.87689790001605,50.85795179998968,3.0165546725807055,None,1,,,,001,2023-10-31_11h36.22.448,Oddball_task,2022.2.5,59.92800247981312,
standard,soundFiles/1000Hz_-3dBFS_3s_44.1kHz.wav',None,1000,2,2,10,1,,,,,50.87689790001605,51.87495359999593,51.87478545001941,53.82414310000604,53.87494860001607,2.938372707920923,None,1,,,,001,2023-10-31_11h36.22.448,Oddball_task,2022.2.5,59.92800247981312,
standard,soundFiles/1000Hz_-3dBFS_3s_44.1kHz.wav',None,1000,2,3,11,2,,,,,53.87494860001607,54.87496640003519,54.874060050025584,58.691809400042985,56.87520960002439,4.803593805571535,None,1,,,,001,2023-10-31_11h36.22.448,Oddball_task,2022.2.5,59.92800247981312,
standard,soundFiles/1000Hz_-3dBFS_3s_44.1kHz.wav',None,1000,3,0,12,2,,,,,58.691809400042985,59.69382460002089,59.69158985002432,62.87530020001577,61.70812870003283,4.176888515474307,None,1,,,,001,2023-10-31_11h36.22.448,Oddball_task,2022.2.5,59.92800247981312,
target,soundFiles/1200Hz_-3dBFS_3s_44.1kHz.wav',t,2000,3,1,13,3,,,,,62.87530020001577,63.87478330003796,63.87448825002648,68.30755850003334,65.87518840003759,5.4300201001733095,t,1,0.9830733999842778,,,001,2023-10-31_11h36.22.448,Oddball_task,2022.2.5,59.92800247981312,
standard,soundFiles/1000Hz_-3dBFS_3s_44.1kHz.wav',None,1000,3,2,14,1,,,,,68.30755850003334,69.3085407000035,69.30819254999514,72.64242510002805,71.308301400044,4.311065610275843,None,1,,,,001,2023-10-31_11h36.22.448,Oddball_task,2022.2.5,59.92800247981312,
standard,soundFiles/1000Hz_-3dBFS_3s_44.1kHz.wav',None,1000,3,3,15,0,,,,,72.64242510002805,73.625337400008,73.62451155002927,78.47490590001689,75.62724230001913,5.823096564773321,None,1,,,,001,2023-10-31_11h36.22.448,Oddball_task,2022.2.5,59.92800247981312,
target,soundFiles/1200Hz_-3dBFS_3s_44.1kHz.wav',t,2000,4,0,16,3,,,,,78.47490590001689,79.45812319999095,79.46057245003757,83.75781040004222,81.45836079999572,5.269167655635208,t,1,0.648693099967204,,,001,2023-10-31_11h36.22.448,Oddball_task,2022.2.5,59.92800247981312,
standard,soundFiles/1000Hz_-3dBFS_3s_44.1kHz.wav',None,1000,4,1,17,2,,,,,83.75781040004222,84.75838880002266,84.75857895003864,86.4246506000054,86.75808570004301,2.666462324396377,None,1,,,,001,2023-10-31_11h36.22.448,Oddball_task,2022.2.5,59.92800247981312,
standard,soundFiles/1000Hz_-3dBFS_3s_44.1kHz.wav',None,1000,4,2,18,0,,,,,86.75808570004301,87.75961100001587,87.75843315003439,90.12640070001362,89.75899740000023,3.352403994032526,None,1,,88.75877499999478,,001,2023-10-31_11h36.22.448,Oddball_task,2022.2.5,59.92800247981312,
standard,soundFiles/1000Hz_-3dBFS_3s_44.1kHz.wav',None,1000,4,3,19,1,,,,,90.12640070001362,91.125337400008,91.12450485003646,93.15869940002449,93.12486690003425,3.019595716325309,None,1,,,,001,2023-10-31_11h36.22.448,Oddball_task,2022.2.5,59.92800247981312,
standard,soundFiles/1000Hz_-3dBFS_3s_44.1kHz.wav',None,1000,5,0,20,1,,,,,93.15869940002449,94.15933620004216,94.15772305000573,98.87563480000244,96.17491689999588,5.70613789778109,None,1,,,,001,2023-10-31_11h36.22.448,Oddball_task,2022.2.5,59.92800247981312,
target,soundFiles/1200Hz_-3dBFS_3s_44.1kHz.wav',t,2000,5,1,21,3,,,,,98.87563480000244,99.87516600004165,99.87594545000465,101.77518749999581,101.87551979999989,2.8969364341413266,t,1,0.7833296000026166,,,001,2023-10-31_11h36.22.448,Oddball_task,2022.2.5,59.92800247981312,
standard,soundFiles/1000Hz_-3dBFS_3s_44.1kHz.wav',None,1000,5,2,22,0,,,,,101.87551979999989,102.8752709000255,102.87464685001177,104.84203770000022,104.87563950003823,2.9659159112271043,None,1,,,,001,2023-10-31_11h36.22.448,Oddball_task,2022.2.5,59.92800247981312,
standard,soundFiles/1000Hz_-3dBFS_3s_44.1kHz.wav',None,1000,5,3,23,2,,,,,104.87563950003823,105.85826370003633,105.85977955001871,109.17540900001768,107.85943690000568,4.28620487503756,None,1,,,,001,2023-10-31_11h36.22.448,Oddball_task,2022.2.5,59.92800247981312,
standard,soundFiles/1000Hz_-3dBFS_3s_44.1kHz.wav',None,1000,6,0,24,1,,,,,109.17540900001768,110.17550459998893,110.17555025001056,113.17521920002764,112.17572719999589,3.998333641536417,None,1,,,,001,2023-10-31_11h36.22.448,Oddball_task,2022.2.5,59.92800247981312,
target,soundFiles/1200Hz_-3dBFS_3s_44.1kHz.wav',t,2000,6,1,25,3,,,,,113.17521920002764,114.17479960003402,114.17557914999779,117.25921230000677,116.17518940003356,4.082453973524478,t,1,0.7241966999717988,,,001,2023-10-31_11h36.22.448,Oddball_task,2022.2.5,59.92800247981312,
standard,soundFiles/1000Hz_-3dBFS_3s_44.1kHz.wav',None,1000,6,2,26,2,,,,,117.25921230000677,118.25857629999518,118.25832345001399,120.27502080000704,120.2584468999994,3.0050762990471855,None,1,,,,001,2023-10-31_11h36.22.448,Oddball_task,2022.2.5,59.92800247981312,
standard,soundFiles/1000Hz_-3dBFS_3s_44.1kHz.wav',None,1000,6,3,27,0,,,,,120.27502080000704,121.27493569999933,121.27437915003392,122.99198769999202,123.27557150000939,2.7011344842415084,None,1,,,,001,2023-10-31_11h36.22.448,Oddball_task,2022.2.5,59.92800247981312,
target,soundFiles/1200Hz_-3dBFS_3s_44.1kHz.wav',t,2000,7,0,28,3,,,,,123.27557150000939,124.27550490002614,124.27502635001437,128.2925011999905,126.27498590003233,5.003524169248325,t,1,0.8554604999953881,,,001,2023-10-31_11h36.22.448,Oddball_task,2022.2.5,59.92800247981312,
standard,soundFiles/1000Hz_-3dBFS_3s_44.1kHz.wav',None,1000,7,1,29,0,,,,,128.2925011999905,129.29221000004327,129.29246014999225,132.47603530000197,131.29256120003993,4.182315235241774,None,1,,,,001,2023-10-31_11h36.22.448,Oddball_task,2022.2.5,59.92800247981312,
standard,soundFiles/1000Hz_-3dBFS_3s_44.1kHz.wav',None,1000,7,2,30,2,,,,,132.47603530000197,133.47579759999644,133.47505025003338,137.34378610004205,135.47716780001065,4.861752986662456,None,1,,,,001,2023-10-31_11h36.22.448,Oddball_task,2022.2.5,59.92800247981312,
standard,soundFiles/1000Hz_-3dBFS_3s_44.1kHz.wav',None,1000,7,3,31,1,,,,,137.34378610004205,138.34232009999687,138.34264965002657,140.7097893000464,140.34196670004167,3.3572589552965098,None,1,,,,001,2023-10-31_11h36.22.448,Oddball_task,2022.2.5,59.92800247981312,
standard,soundFiles/1000Hz_-3dBFS_3s_44.1kHz.wav',None,1000,8,0,32,2,,,,,140.7097893000464,141.70888729998842,141.70858785000163,143.59236770001007,143.70834240003023,2.8742192629392376,None,1,,,,001,2023-10-31_11h36.22.448,Oddball_task,2022.2.5,59.92800247981312,
standard,soundFiles/1000Hz_-3dBFS_3s_44.1kHz.wav',None,1000,8,1,33,1,,,,,143.70834240003023,144.70850970002357,144.70885955003322,149.55877060000785,146.70989570004167,5.848513207241081,None,1,,,,001,2023-10-31_11h36.22.448,Oddball_task,2022.2.5,59.92800247981312,
target,soundFiles/1200Hz_-3dBFS_3s_44.1kHz.wav',t,2000,8,2,34,3,,,,,149.55877060000785,150.5585482000024,150.55890795002924,155.4916778000188,152.5595518000191,5.921001033242486,t,1,0.780741200025659,,,001,2023-10-31_11h36.22.448,Oddball_task,2022.2.5,59.92800247981312,
standard,soundFiles/1000Hz_-3dBFS_3s_44.1kHz.wav',None,1000,8,3,35,0,,,,,155.4916778000188,156.4925218000426,156.49228045003255,157.94153970002662,158.49219530000119,2.448643866204766,None,1,,,,001,2023-10-31_11h36.22.448,Oddball_task,2022.2.5,59.92800247981312,
standard,soundFiles/1000Hz_-3dBFS_3s_44.1kHz.wav',None,1000,9,0,36,0,,,,,158.49219530000119,159.49268260004465,159.49192105003166,160.8923533000052,161.4928633000236,2.3991556602729602,None,1,,,,001,2023-10-31_11h36.22.448,Oddball_task,2022.2.5,59.92800247981312,
target,soundFiles/1200Hz_-3dBFS_3s_44.1kHz.wav',t,2000,9,1,37,3,,,,,161.4928633000236,162.49237360002007,162.4919390499941,166.39249019999988,164.4920157000306,4.892055070194551,t,1,0.7104997999849729,163.49209810001776,,001,2023-10-31_11h36.22.448,Oddball_task,2022.2.5,59.92800247981312,
standard,soundFiles/1000Hz_-3dBFS_3s_44.1kHz.wav',None,1000,9,2,38,2,,,,,166.39249019999988,167.39305090002017,167.391994350031,169.99161760002607,169.39235760003794,3.584517577079826,None,1,,,,001,2023-10-31_11h36.22.448,Oddball_task,2022.2.5,59.92800247981312,
standard,soundFiles/1000Hz_-3dBFS_3s_44.1kHz.wav',None,1000,9,3,39,1,,,,,169.99161760002607,170.99357029999373,170.9923367499956,173.3095226000296,172.99200030002976,3.304216751041481,None,1,,,,001,2023-10-31_11h36.22.448,Oddball_task,2022.2.5,59.92800247981312,
standard,soundFiles/1000Hz_-3dBFS_3s_44.1kHz.wav',None,1000,10,0,40,2,,,,,173.3095226000296,174.30960680003045,174.30931365003343,177.9933078000322,176.32621960004326,4.6731394492441805,None,1,,,,001,2023-10-31_11h36.22.448,Oddball_task,2022.2.5,59.92800247981312,
standard,soundFiles/1000Hz_-3dBFS_3s_44.1kHz.wav',None,1000,10,1,41,1,,,,,177.9933078000322,178.9920328000444,178.99242814999306,183.0260346000432,180.99246600002516,5.025896928176193,None,1,,,,001,2023-10-31_11h36.22.448,Oddball_task,2022.2.5,59.92800247981312,
standard,soundFiles/1000Hz_-3dBFS_3s_44.1kHz.wav',None,1000,10,2,42,0,,,,,183.0260346000432,184.02629270002944,184.025396250037,186.40836500003934,186.02640860003885,3.3787850371747745,None,1,,,,001,2023-10-31_11h36.22.448,Oddball_task,2022.2.5,59.92800247981312,
target,soundFiles/1200Hz_-3dBFS_3s_44.1kHz.wav',t,2000,10,3,43,3,,,,,186.40836500003934,187.40848370001186,187.4090651500388,188.4607277000323,189.4088771000388,2.040599921841306,t,1,0.7079155999817885,,,001,2023-10-31_11h36.22.448,Oddball_task,2022.2.5,59.92800247981312,
,,,,,,,,,,,,189.4088771000388,190.4089418000076,190.409872850019,,,,,,,,,,,,,,
