trial,file,corrAns,tone,trials_2.thisRepN,trials_2.thisTrialN,trials_2.thisN,trials_2.thisIndex,instructions.started,key_resp_1.started,key_resp_1.keys,key_resp_1.rt,fixation.started,response.started,sound_1.started,fixation.stopped,response.stopped,FixDur,response.keys,response.corr,response.rt,sound_1.stopped,participant,session,date,expName,psychopyVersion,frameRate,
,,,,,,,,16.315928600000916,16.315928600000916,space,67.13870239998505,,,,,,,,,,,,001,2023-11-08_10h54.34.160,Oddball_task,2022.2.5,60.42018614161272,
standard,soundFiles/1000Hz_-3dBFS_3s_44.1kHz.wav',None,1000,0,0,0,0,,,,,83.51620820000244,84.48350729999947,84.48375372001173,85.53385370000615,86.4835435999994,2.003129206015742,None,1,,,,001,2023-11-08_10h54.34.160,Oddball_task,2022.2.5,60.42018614161272,
target,soundFiles/1200Hz_-3dBFS_3s_44.1kHz.wav',t,2000,0,1,1,3,,,,,86.4835435999994,87.48434439999983,87.48375322000793,88.55008150001231,89.48325220000697,2.064027353257405,t,1,0.9545160999987274,,,001,2023-11-08_10h54.34.160,Oddball_task,2022.2.5,60.42018614161272,
standard,soundFiles/1000Hz_-3dBFS_3s_44.1kHz.wav',None,1000,0,2,2,1,,,,,89.48325220000697,90.48383460000332,90.48421152000519,94.33314940000128,92.49936140001228,4.837538767347684,None,1,,,,001,2023-11-08_10h54.34.160,Oddball_task,2022.2.5,60.42018614161272,
standard,soundFiles/1000Hz_-3dBFS_3s_44.1kHz.wav',None,1000,0,3,3,2,,,,,94.33314940000128,95.31680020000204,95.31729152000189,97.04947110000649,97.31681129999924,2.7044019121180205,None,1,,,,001,2023-11-08_10h54.34.160,Oddball_task,2022.2.5,60.42018614161272,
target,soundFiles/1200Hz_-3dBFS_3s_44.1kHz.wav',t,2000,1,0,4,3,,,,,97.31681129999924,98.31600170000456,98.31752482000302,101.78386310000496,100.31698030000553,4.465550291881051,t,1,0.7314149999874644,,,001,2023-11-08_10h54.34.160,Oddball_task,2022.2.5,60.42018614161272,
standard,soundFiles/1000Hz_-3dBFS_3s_44.1kHz.wav',None,1000,1,1,5,0,,,,,101.78386310000496,102.78279540000949,102.7834767200009,104.65002120001009,104.78423360000306,2.858439025670791,None,1,,,,001,2023-11-08_10h54.34.160,Oddball_task,2022.2.5,60.42018614161272,
standard,soundFiles/1000Hz_-3dBFS_3s_44.1kHz.wav',None,1000,1,2,6,1,,,,,104.78423360000306,105.78329310000117,105.78343202000978,109.59957220000797,107.7828867000062,4.802199750377406,None,1,,,,001,2023-11-08_10h54.34.160,Oddball_task,2022.2.5,60.42018614161272,
standard,soundFiles/1000Hz_-3dBFS_3s_44.1kHz.wav',None,1000,1,3,7,2,,,,,109.59957220000797,110.60062510000716,110.59993542000738,113.9825559000019,112.59991110001283,4.376332822219719,None,1,,,,001,2023-11-08_10h54.34.160,Oddball_task,2022.2.5,60.42018614161272,
standard,soundFiles/1000Hz_-3dBFS_3s_44.1kHz.wav',None,1000,2,0,8,0,,,,,113.9825559000019,114.96698950001155,114.96740142000344,116.48314020001271,116.96709900000133,2.488692405460468,None,1,,,,001,2023-11-08_10h54.34.160,Oddball_task,2022.2.5,60.42018614161272,
standard,soundFiles/1000Hz_-3dBFS_3s_44.1kHz.wav',None,1000,2,1,9,1,,,,,116.96709900000133,117.96663999999873,117.96680782000912,119.36739490000764,119.96729100000812,2.3899866627726283,None,1,,,,001,2023-11-08_10h54.34.160,Oddball_task,2022.2.5,60.42018614161272,
standard,soundFiles/1000Hz_-3dBFS_3s_44.1kHz.wav',None,1000,2,2,10,2,,,,,119.96729100000812,120.9660573000001,120.9665257200002,124.73424350000278,122.96667040001194,4.76688528142787,None,1,,,,001,2023-11-08_10h54.34.160,Oddball_task,2022.2.5,60.42018614161272,
target,soundFiles/1200Hz_-3dBFS_3s_44.1kHz.wav',t,2000,2,3,11,3,,,,,124.73424350000278,125.73315820000425,125.73361942000774,128.8172198000102,127.73283140000422,4.066931960842076,t,1,0.6510449999914272,,,001,2023-11-08_10h54.34.160,Oddball_task,2022.2.5,60.42018614161272,
standard,soundFiles/1000Hz_-3dBFS_3s_44.1kHz.wav',None,1000,3,0,12,2,,,,,128.8172198000102,129.816464500007,129.8163358200007,132.59939410000516,131.81697300000815,3.7763158742948004,None,1,,,,001,2023-11-08_10h54.34.160,Oddball_task,2022.2.5,60.42018614161272,
standard,soundFiles/1000Hz_-3dBFS_3s_44.1kHz.wav',None,1000,3,1,13,1,,,,,132.59939410000516,133.5994664000027,133.5996751200044,135.36622020001232,135.59945240001252,2.7533580540384968,None,1,,,,001,2023-11-08_10h54.34.160,Oddball_task,2022.2.5,60.42018614161272,
standard,soundFiles/1000Hz_-3dBFS_3s_44.1kHz.wav',None,1000,3,2,14,0,,,,,135.59945240001252,136.59946470000432,136.59933832000098,139.68277630000375,138.59950300000492,4.0788563701172125,None,1,,,,001,2023-11-08_10h54.34.160,Oddball_task,2022.2.5,60.42018614161272,
target,soundFiles/1200Hz_-3dBFS_3s_44.1kHz.wav',t,2000,3,3,15,3,,,,,139.68277630000375,140.6661243999988,140.6671789200089,142.6658529000124,142.6658529000124,2.983843290261093,t,1,0.741033599988441,,,001,2023-11-08_10h54.34.160,Oddball_task,2022.2.5,60.42018614161272,
standard,soundFiles/1000Hz_-3dBFS_3s_44.1kHz.wav',None,1000,4,0,16,2,,,,,142.6658529000124,143.65048010001192,143.6506173200076,146.00005200000305,145.64965590000793,3.3336501052081395,None,1,,,,001,2023-11-08_10h54.34.160,Oddball_task,2022.2.5,60.42018614161272,
standard,soundFiles/1000Hz_-3dBFS_3s_44.1kHz.wav',None,1000,4,1,17,0,,,,,146.00005200000305,146.98395470000105,146.98370712000616,148.78410680001252,148.98368520000076,2.784211946254512,None,1,,,,001,2023-11-08_10h54.34.160,Oddball_task,2022.2.5,60.42018614161272,
standard,soundFiles/1000Hz_-3dBFS_3s_44.1kHz.wav',None,1000,4,2,18,1,,,,,148.98368520000076,149.98302130000957,149.98278832000943,152.5664378000074,152.0065321000002,3.5796319822671356,None,1,,,,001,2023-11-08_10h54.34.160,Oddball_task,2022.2.5,60.42018614161272,
target,soundFiles/1200Hz_-3dBFS_3s_44.1kHz.wav',t,2000,4,3,19,3,,,,,152.5664378000074,153.55060719999892,153.55111872000708,156.3497897000052,155.56630810000934,3.777627399387269,t,1,0.7124218999961158,,,001,2023-11-08_10h54.34.160,Oddball_task,2022.2.5,60.42018614161272,
standard,soundFiles/1000Hz_-3dBFS_3s_44.1kHz.wav',None,1000,5,0,20,1,,,,,156.3497897000052,157.35108780000883,157.35034092001007,159.73304910000297,159.34954190001008,3.3731015927788244,None,1,,,,001,2023-11-08_10h54.34.160,Oddball_task,2022.2.5,60.42018614161272,
standard,soundFiles/1000Hz_-3dBFS_3s_44.1kHz.wav',None,1000,5,1,21,2,,,,,159.73304910000297,160.73308800000814,160.73275192000875,163.1660125000053,162.73307830000704,3.4330745761531594,None,1,,161.73277690001123,,001,2023-11-08_10h54.34.160,Oddball_task,2022.2.5,60.42018614161272,
target,soundFiles/1200Hz_-3dBFS_3s_44.1kHz.wav',t,2000,5,2,22,3,,,,,163.1660125000053,164.14908580000338,164.14988322000573,166.11617449999903,166.14984920001007,2.944262513072237,t,1,0.7374405999871669,,,001,2023-11-08_10h54.34.160,Oddball_task,2022.2.5,60.42018614161272,
standard,soundFiles/1000Hz_-3dBFS_3s_44.1kHz.wav',None,1000,5,3,23,0,,,,,166.14984920001007,167.13407550001284,167.13484591999878,171.06572520000918,169.13388790001045,4.9123673903704335,None,1,,168.13352730000042,,001,2023-11-08_10h54.34.160,Oddball_task,2022.2.5,60.42018614161272,
standard,soundFiles/1000Hz_-3dBFS_3s_44.1kHz.wav',None,1000,6,0,24,1,,,,,171.06572520000918,172.06598280000617,172.0661795200038,174.01586520001,174.06648540000606,2.9355656107116066,None,1,,,,001,2023-11-08_10h54.34.160,Oddball_task,2022.2.5,60.42018614161272,
standard,soundFiles/1000Hz_-3dBFS_3s_44.1kHz.wav',None,1000,6,1,25,0,,,,,174.06648540000606,175.0658942000009,175.06633062000475,177.56650150001224,177.06570270001248,3.4875839708604834,None,1,,,,001,2023-11-08_10h54.34.160,Oddball_task,2022.2.5,60.42018614161272,
target,soundFiles/1200Hz_-3dBFS_3s_44.1kHz.wav',t,2000,6,2,26,3,,,,,177.56650150001224,178.56588510000438,178.56824722000312,179.80016540001088,180.56713840000157,2.229701186342279,t,1,0.6889270999818109,,,001,2023-11-08_10h54.34.160,Oddball_task,2022.2.5,60.42018614161272,
standard,soundFiles/1000Hz_-3dBFS_3s_44.1kHz.wav',None,1000,6,3,27,2,,,,,180.56713840000157,181.5657160000119,181.56631442001236,185.43325460000779,183.56574900000123,4.853731102188647,None,1,,,,001,2023-11-08_10h54.34.160,Oddball_task,2022.2.5,60.42018614161272,
standard,soundFiles/1000Hz_-3dBFS_3s_44.1kHz.wav',None,1000,7,0,28,1,,,,,185.43325460000779,186.4157922000013,186.41721902000864,188.0828072000004,188.4161873999983,2.6423164461974027,None,1,,,,001,2023-11-08_10h54.34.160,Oddball_task,2022.2.5,60.42018614161272,
standard,soundFiles/1000Hz_-3dBFS_3s_44.1kHz.wav',None,1000,7,1,29,2,,,,,188.4161873999983,189.40044730000955,189.40057812000015,193.31633080000756,191.39903040000354,4.893294483663972,None,1,,,,001,2023-11-08_10h54.34.160,Oddball_task,2022.2.5,60.42018614161272,
target,soundFiles/1200Hz_-3dBFS_3s_44.1kHz.wav',t,2000,7,2,30,3,,,,,193.31633080000756,194.31589209999947,194.3162946200071,197.83328960000654,196.31629860000976,4.514424671754014,t,1,0.7308574999915436,,,001,2023-11-08_10h54.34.160,Oddball_task,2022.2.5,60.42018614161272,
standard,soundFiles/1000Hz_-3dBFS_3s_44.1kHz.wav',None,1000,7,3,31,0,,,,,197.83328960000654,198.83338530000765,198.83295792001155,202.26616579999973,200.83257180001237,4.427313682294715,None,1,,,,001,2023-11-08_10h54.34.160,Oddball_task,2022.2.5,60.42018614161272,
standard,soundFiles/1000Hz_-3dBFS_3s_44.1kHz.wav',None,1000,8,0,32,2,,,,,202.26616579999973,203.25123249999888,203.2498656200085,205.24987270000565,205.24987270000565,2.9796266076712827,None,1,,,,001,2023-11-08_10h54.34.160,Oddball_task,2022.2.5,60.42018614161272,
standard,soundFiles/1000Hz_-3dBFS_3s_44.1kHz.wav',None,1000,8,1,33,1,,,,,205.24987270000565,206.24989960000676,206.25025562000957,209.69982050001272,208.24960640000063,4.438991634403296,None,1,,,,001,2023-11-08_10h54.34.160,Oddball_task,2022.2.5,60.42018614161272,
target,soundFiles/1200Hz_-3dBFS_3s_44.1kHz.wav',t,2000,8,2,34,3,,,,,209.69982050001272,210.7003459000116,210.69949882000657,212.71653530000185,212.69934030000877,3.010726979430293,t,1,0.7226170999929309,,,001,2023-11-08_10h54.34.160,Oddball_task,2022.2.5,60.42018614161272,
standard,soundFiles/1000Hz_-3dBFS_3s_44.1kHz.wav',None,1000,8,3,35,0,,,,,212.71653530000185,213.7162226000073,213.71676422001184,215.06606490000559,215.75448850000976,2.347745425177905,None,1,,,,001,2023-11-08_10h54.34.160,Oddball_task,2022.2.5,60.42018614161272,
target,soundFiles/1200Hz_-3dBFS_3s_44.1kHz.wav',t,2000,9,0,36,3,,,,,215.75448850000976,216.73292320000473,216.7328395200064,218.61590340000112,218.73451720000594,2.8594187061961716,t,1,0.962063799976022,,,001,2023-11-08_10h54.34.160,Oddball_task,2022.2.5,60.42018614161272,
standard,soundFiles/1000Hz_-3dBFS_3s_44.1kHz.wav',None,1000,9,1,37,1,,,,,218.73451720000594,219.73362300000736,219.73283452001198,222.58369110000785,221.7329033999995,3.84673284851102,None,1,,,,001,2023-11-08_10h54.34.160,Oddball_task,2022.2.5,60.42018614161272,
standard,soundFiles/1000Hz_-3dBFS_3s_44.1kHz.wav',None,1000,9,2,38,2,,,,,222.58369110000785,223.58427580000716,223.58403981999874,226.58311120000144,225.5833255000034,3.988820687826421,None,1,,,,001,2023-11-08_10h54.34.160,Oddball_task,2022.2.5,60.42018614161272,
standard,soundFiles/1000Hz_-3dBFS_3s_44.1kHz.wav',None,1000,9,3,39,0,,,,,226.58311120000144,227.56615330000932,227.56682652001183,230.9329543000058,229.56671120000829,4.335823613595183,None,1,,,,001,2023-11-08_10h54.34.160,Oddball_task,2022.2.5,60.42018614161272,
target,soundFiles/1200Hz_-3dBFS_3s_44.1kHz.wav',t,2000,10,0,40,3,,,,,230.9329543000058,231.93366100000276,231.93340661999974,234.3995014000102,233.94913150000502,3.4571626383554825,t,1,0.7929424999892944,,,001,2023-11-08_10h54.34.160,Oddball_task,2022.2.5,60.42018614161272,
standard,soundFiles/1000Hz_-3dBFS_3s_44.1kHz.wav',None,1000,10,1,41,1,,,,,234.3995014000102,235.3992811000062,235.3998305200119,238.56629230000544,237.40016130000004,4.162363891481405,None,1,,,,001,2023-11-08_10h54.34.160,Oddball_task,2022.2.5,60.42018614161272,
standard,soundFiles/1000Hz_-3dBFS_3s_44.1kHz.wav',None,1000,10,2,42,0,,,,,238.56629230000544,239.56712590000825,239.56724612000545,242.41642390000925,241.56700590001128,3.849336241608611,None,1,,240.5660896000045,,001,2023-11-08_10h54.34.160,Oddball_task,2022.2.5,60.42018614161272,
standard,soundFiles/1000Hz_-3dBFS_3s_44.1kHz.wav',None,1000,10,3,43,2,,,,,242.41642390000925,243.4158965000097,243.4165287200056,247.2338591000007,245.4177953000035,4.809581283549063,None,1,,,,001,2023-11-08_10h54.34.160,Oddball_task,2022.2.5,60.42018614161272,
target,soundFiles/1200Hz_-3dBFS_3s_44.1kHz.wav',t,2000,11,0,44,3,,,,,247.2338591000007,248.23270110000158,248.23289971999912,251.88290310000593,250.2326052999997,4.649452267377121,t,1,0.7018220999889309,,,001,2023-11-08_10h54.34.160,Oddball_task,2022.2.5,60.42018614161272,
standard,soundFiles/1000Hz_-3dBFS_3s_44.1kHz.wav',None,1000,11,1,45,0,,,,,251.88290310000593,252.8660649000085,252.86657962001192,253.93257080001058,254.86645130001125,2.0440151818523553,None,1,,,,001,2023-11-08_10h54.34.160,Oddball_task,2022.2.5,60.42018614161272,
standard,soundFiles/1000Hz_-3dBFS_3s_44.1kHz.wav',None,1000,11,2,46,2,,,,,254.86645130001125,255.86561440001242,255.867405419999,258.9162139000109,257.86621269999887,4.050828803537778,None,1,,,,001,2023-11-08_10h54.34.160,Oddball_task,2022.2.5,60.42018614161272,
standard,soundFiles/1000Hz_-3dBFS_3s_44.1kHz.wav',None,1000,11,3,47,1,,,,,258.9162139000109,259.89964080000937,259.9002621200096,261.88213220000034,261.8990629000036,2.9532588682662633,None,1,,,,001,2023-11-08_10h54.34.160,Oddball_task,2022.2.5,60.42018614161272,
standard,soundFiles/1000Hz_-3dBFS_3s_44.1kHz.wav',None,1000,12,0,48,1,,,,,261.8990629000036,262.8829291000002,262.88274941999845,266.83376110000245,264.8828779000032,4.934627428327417,None,1,,,,001,2023-11-08_10h54.34.160,Oddball_task,2022.2.5,60.42018614161272,
target,soundFiles/1200Hz_-3dBFS_3s_44.1kHz.wav',t,2000,12,1,49,3,,,,,266.83376110000245,267.8331494000013,267.8328232200045,270.00035280000884,269.835132799999,3.166632330171209,t,1,0.7334439999831375,,,001,2023-11-08_10h54.34.160,Oddball_task,2022.2.5,60.42018614161272,
standard,soundFiles/1000Hz_-3dBFS_3s_44.1kHz.wav',None,1000,12,2,50,2,,,,,270.00035280000884,270.9996070000052,270.99970181999817,273.36590800000704,272.9993070000055,3.365201371365364,None,1,,,,001,2023-11-08_10h54.34.160,Oddball_task,2022.2.5,60.42018614161272,
standard,soundFiles/1000Hz_-3dBFS_3s_44.1kHz.wav',None,1000,12,3,51,0,,,,,273.36590800000704,274.34924970001157,274.3497587200007,277.8492089000065,276.3491090000025,4.481881821100847,None,1,,,,001,2023-11-08_10h54.34.160,Oddball_task,2022.2.5,60.42018614161272,
target,soundFiles/1200Hz_-3dBFS_3s_44.1kHz.wav',t,2000,13,0,52,3,,,,,277.8492089000065,278.8492261000065,278.85039902000136,280.51685670000734,280.85101620000205,2.6543297811869837,t,1,0.781704599983641,,,001,2023-11-08_10h54.34.160,Oddball_task,2022.2.5,60.42018614161272,
standard,soundFiles/1000Hz_-3dBFS_3s_44.1kHz.wav',None,1000,13,1,53,2,,,,,280.85101620000205,281.85110390000045,281.8504133200084,284.48258560000977,283.86628620000556,3.624355286270958,None,1,,,,001,2023-11-08_10h54.34.160,Oddball_task,2022.2.5,60.42018614161272,
standard,soundFiles/1000Hz_-3dBFS_3s_44.1kHz.wav',None,1000,13,2,54,0,,,,,284.48258560000977,285.48306830000365,285.48321452000965,286.6493230000051,287.48253740000655,2.1647818928638634,None,1,,,,001,2023-11-08_10h54.34.160,Oddball_task,2022.2.5,60.42018614161272,
standard,soundFiles/1000Hz_-3dBFS_3s_44.1kHz.wav',None,1000,13,3,55,1,,,,,287.48253740000655,288.48330500000156,288.48290312001046,290.98280250000244,290.4831630000117,3.491856367301865,None,1,,,,001,2023-11-08_10h54.34.160,Oddball_task,2022.2.5,60.42018614161272,
standard,soundFiles/1000Hz_-3dBFS_3s_44.1kHz.wav',None,1000,14,0,56,0,,,,,290.98280250000244,291.96676450000086,291.9671348200107,294.5158739000035,293.96730899999966,3.5264133619436007,None,1,,,,001,2023-11-08_10h54.34.160,Oddball_task,2022.2.5,60.42018614161272,
standard,soundFiles/1000Hz_-3dBFS_3s_44.1kHz.wav',None,1000,14,1,57,2,,,,,294.5158739000035,295.50029870000435,295.5004764200028,297.51548719999846,297.49911060000886,2.9986706820427225,None,1,,,,001,2023-11-08_10h54.34.160,Oddball_task,2022.2.5,60.42018614161272,
standard,soundFiles/1000Hz_-3dBFS_3s_44.1kHz.wav',None,1000,14,2,58,1,,,,,297.51548719999846,298.5162182000058,298.5161904200111,301.833670100008,300.51559980001184,4.308656995289169,None,1,,,,001,2023-11-08_10h54.34.160,Oddball_task,2022.2.5,60.42018614161272,
target,soundFiles/1200Hz_-3dBFS_3s_44.1kHz.wav',t,2000,14,3,59,3,,,,,301.833670100008,302.83259309999994,302.832657020005,304.59987280001224,304.8336057000124,2.761719993471554,t,1,0.8617747999815037,,,001,2023-11-08_10h54.34.160,Oddball_task,2022.2.5,60.42018614161272,
standard,soundFiles/1000Hz_-3dBFS_3s_44.1kHz.wav',None,1000,15,0,60,1,,,,,304.8336057000124,305.83237990000634,305.83260602000956,307.48251300000993,307.8332626000047,2.6355142955644713,None,1,,,,001,2023-11-08_10h54.34.160,Oddball_task,2022.2.5,60.42018614161272,
target,soundFiles/1200Hz_-3dBFS_3s_44.1kHz.wav',t,2000,15,1,61,3,,,,,307.8332626000047,308.83331600000383,308.8341126200001,312.4498246000003,310.8329975000088,4.616284025986644,t,1,0.9337401999946451,309.83297650000895,,001,2023-11-08_10h54.34.160,Oddball_task,2022.2.5,60.42018614161272,
standard,soundFiles/1000Hz_-3dBFS_3s_44.1kHz.wav',None,1000,15,2,62,2,,,,,312.4498246000003,313.44948809999914,313.44965622001183,314.6829765000002,315.44901560001017,2.230074129243021,None,1,,,,001,2023-11-08_10h54.34.160,Oddball_task,2022.2.5,60.42018614161272,
standard,soundFiles/1000Hz_-3dBFS_3s_44.1kHz.wav',None,1000,15,3,63,0,,,,,315.44901560001017,316.43428840000706,316.4338686200106,318.59943100000964,318.4493167000037,3.1471765391468036,None,1,,,,001,2023-11-08_10h54.34.160,Oddball_task,2022.2.5,60.42018614161272,
standard,soundFiles/1000Hz_-3dBFS_3s_44.1kHz.wav',None,1000,16,0,64,2,,,,,318.59943100000964,319.59916990000056,319.6005417200111,322.7328465000028,321.59905780000554,4.12047586183418,None,1,,,,001,2023-11-08_10h54.34.160,Oddball_task,2022.2.5,60.42018614161272,
target,soundFiles/1200Hz_-3dBFS_3s_44.1kHz.wav',t,2000,16,1,65,3,,,,,322.7328465000028,323.71645030000946,323.7166639200048,325.91593940000166,325.7158335999993,3.171616092772269,t,1,0.7380832999915583,,,001,2023-11-08_10h54.34.160,Oddball_task,2022.2.5,60.42018614161272,
standard,soundFiles/1000Hz_-3dBFS_3s_44.1kHz.wav',None,1000,16,2,66,1,,,,,325.91593940000166,326.9157825000002,326.91628772000405,328.28771889999916,328.9168774999998,2.362393665774709,None,1,,,,001,2023-11-08_10h54.34.160,Oddball_task,2022.2.5,60.42018614161272,
standard,soundFiles/1000Hz_-3dBFS_3s_44.1kHz.wav',None,1000,16,3,67,0,,,,,328.9168774999998,329.9164893999987,329.9166351200009,332.5488718000124,331.9157581000036,3.622405007630146,None,1,,,,001,2023-11-08_10h54.34.160,Oddball_task,2022.2.5,60.42018614161272,
standard,soundFiles/1000Hz_-3dBFS_3s_44.1kHz.wav',None,1000,17,0,68,1,,,,,332.5488718000124,333.54950649999955,333.5499906200028,336.04886200001056,335.5507839000056,3.4914838172435525,None,1,,,,001,2023-11-08_10h54.34.160,Oddball_task,2022.2.5,60.42018614161272,
standard,soundFiles/1000Hz_-3dBFS_3s_44.1kHz.wav',None,1000,17,1,69,2,,,,,336.04886200001056,337.0495613000094,337.049763620006,338.0833992000116,339.05038400000194,2.0253459556821816,None,1,,,,001,2023-11-08_10h54.34.160,Oddball_task,2022.2.5,60.42018614161272,
target,soundFiles/1200Hz_-3dBFS_3s_44.1kHz.wav',t,2000,17,2,70,3,,,,,339.05038400000194,340.0493611999991,340.049096520005,342.2324718000018,342.0495290000108,3.172959434760576,t,1,0.6934662999847205,,,001,2023-11-08_10h54.34.160,Oddball_task,2022.2.5,60.42018614161272,
standard,soundFiles/1000Hz_-3dBFS_3s_44.1kHz.wav',None,1000,17,3,71,0,,,,,342.2324718000018,343.217307400002,343.217447620006,346.33291969999846,345.21574100000726,4.085924361707063,None,1,,,,001,2023-11-08_10h54.34.160,Oddball_task,2022.2.5,60.42018614161272,
standard,soundFiles/1000Hz_-3dBFS_3s_44.1kHz.wav',None,1000,18,0,72,1,,,,,346.33291969999846,347.33298659999855,347.3323950200036,350.2155122000113,349.33222970001225,3.87321165879202,None,1,,,,001,2023-11-08_10h54.34.160,Oddball_task,2022.2.5,60.42018614161272,
target,soundFiles/1200Hz_-3dBFS_3s_44.1kHz.wav',t,2000,18,1,73,3,,,,,350.2155122000113,351.21575050000683,351.2157545200069,353.48256210000545,353.2156485000014,3.2649383874316436,t,1,0.8314592999813613,,,001,2023-11-08_10h54.34.160,Oddball_task,2022.2.5,60.42018614161272,
standard,soundFiles/1000Hz_-3dBFS_3s_44.1kHz.wav',None,1000,18,2,74,0,,,,,353.48256210000545,354.4688625000126,354.4696978200125,356.84941350000736,356.48269670001173,3.3583038437831445,None,1,,,,001,2023-11-08_10h54.34.160,Oddball_task,2022.2.5,60.42018614161272,
standard,soundFiles/1000Hz_-3dBFS_3s_44.1kHz.wav',None,1000,18,3,75,2,,,,,356.84941350000736,357.84944879999966,357.8498327200112,361.76584690000163,359.85091710000415,4.91068996599222,None,1,,,,001,2023-11-08_10h54.34.160,Oddball_task,2022.2.5,60.42018614161272,
,,,,,,,,,,,,361.76584690000163,,,,,,,,,,,,,,,,
