trial,file,corrAns,tone,trials_2.thisRepN,trials_2.thisTrialN,trials_2.thisN,trials_2.thisIndex,instructions.started,key_resp_1.started,key_resp_1.keys,key_resp_1.rt,fixation.started,response.started,sound_1.started,fixation.stopped,response.stopped,FixDur,response.keys,response.corr,sound_1.stopped,participant,session,date,expName,psychopyVersion,frameRate,
,,,,,,,,31.814200199994957,31.814200199994957,space,16.054998599996907,,,,,,,,,,,001,2023-11-02_10h29.47.006,Oddball_task,2022.2.5,60.27509553794457,
target,soundFiles/1200Hz_-3dBFS_3s_44.1kHz.wav',t,60,0,0,0,3,,,,,47.91437859999132,48.89729959999386,48.89749640999944,50.86516499999561,50.89766689999669,2.9419629140741965,None,0,,,001,2023-11-02_10h29.47.006,Oddball_task,2022.2.5,60.27509553794457,
standard,soundFiles/1000Hz_-3dBFS_3s_44.1kHz.wav',None,40,0,1,1,0,,,,,50.89766689999669,51.89759039999626,51.897519710002236,54.0648036999919,53.897458699997514,3.1600014097846043,None,1,,,001,2023-11-02_10h29.47.006,Oddball_task,2022.2.5,60.27509553794457,
standard,soundFiles/1000Hz_-3dBFS_3s_44.1kHz.wav',None,40,0,2,2,2,,,,,54.0648036999919,55.06492330000037,55.06404351000092,56.56412499998987,57.064179199995124,2.4886718575439604,None,1,,,001,2023-11-02_10h29.47.006,Oddball_task,2022.2.5,60.27509553794457,
standard,soundFiles/1000Hz_-3dBFS_3s_44.1kHz.wav',None,40,0,3,3,1,,,,,57.064179199995124,58.064572099989164,58.06455630999117,60.19774379998853,60.064331299989135,3.1191656561898147,None,1,,,001,2023-11-02_10h29.47.006,Oddball_task,2022.2.5,60.27509553794457,
standard,soundFiles/1000Hz_-3dBFS_3s_44.1kHz.wav',None,40,1,0,4,2,,,,,60.19774379998853,61.19861539998965,61.19908051000093,62.465337199988426,63.197936099997605,2.2568584775860963,None,1,,,001,2023-11-02_10h29.47.006,Oddball_task,2022.2.5,60.27509553794457,
standard,soundFiles/1000Hz_-3dBFS_3s_44.1kHz.wav',None,40,1,1,5,1,,,,,63.197936099997605,64.19788130000234,64.19794531000079,66.44759939999494,66.19783659999666,3.2352094756704943,None,1,,,001,2023-11-02_10h29.47.006,Oddball_task,2022.2.5,60.27509553794457,
standard,soundFiles/1000Hz_-3dBFS_3s_44.1kHz.wav',None,40,1,2,6,0,,,,,66.44759939999494,67.44744209999044,67.44755430999211,70.96404890000122,69.44767860000138,4.503581705822546,None,1,,,001,2023-11-02_10h29.47.006,Oddball_task,2022.2.5,60.27509553794457,
target,soundFiles/1200Hz_-3dBFS_3s_44.1kHz.wav',t,60,1,3,7,3,,,,,70.96404890000122,71.96454020000238,71.96469440998916,73.79736959999718,73.96447359999001,2.832628734380728,None,0,,,001,2023-11-02_10h29.47.006,Oddball_task,2022.2.5,60.27509553794457,
target,soundFiles/1200Hz_-3dBFS_3s_44.1kHz.wav',t,60,2,0,8,3,,,,,73.96447359999001,74.96452229999704,74.96465550999855,77.99787559999095,76.96448850000161,4.0229517169249975,None,0,,,001,2023-11-02_10h29.47.006,Oddball_task,2022.2.5,60.27509553794457,
standard,soundFiles/1000Hz_-3dBFS_3s_44.1kHz.wav',None,40,2,1,9,0,,,,,77.99787559999095,78.99814630000037,78.99768090999859,83.3144040999905,80.99820679999539,5.3027159881804256,None,1,,,001,2023-11-02_10h29.47.006,Oddball_task,2022.2.5,60.27509553794457,
standard,soundFiles/1000Hz_-3dBFS_3s_44.1kHz.wav',None,40,2,2,10,2,,,,,83.3144040999905,84.31533559999662,84.31453190999454,89.3153653999907,86.31636149999395,5.9991785835253495,None,1,,,001,2023-11-02_10h29.47.006,Oddball_task,2022.2.5,60.27509553794457,
standard,soundFiles/1000Hz_-3dBFS_3s_44.1kHz.wav',None,40,2,3,11,1,,,,,89.3153653999907,90.31493310000224,90.31468591000302,92.8313705999899,92.31498559999454,3.5140037889420492,None,1,,,001,2023-11-02_10h29.47.006,Oddball_task,2022.2.5,60.27509553794457,
standard,soundFiles/1000Hz_-3dBFS_3s_44.1kHz.wav',None,40,3,0,12,0,,,,,92.8313705999899,93.83211629999278,93.83152431000198,98.23210329998983,95.83168199998909,5.401436522865369,None,1,,,001,2023-11-02_10h29.47.006,Oddball_task,2022.2.5,60.27509553794457,
standard,soundFiles/1000Hz_-3dBFS_3s_44.1kHz.wav',None,40,3,1,13,2,,,,,98.23210329998983,99.23242099999334,99.23127980999706,100.94874300000083,101.23269829999481,2.7070859447500144,None,1,,,001,2023-11-02_10h29.47.006,Oddball_task,2022.2.5,60.27509553794457,
standard,soundFiles/1000Hz_-3dBFS_3s_44.1kHz.wav',None,40,3,2,14,1,,,,,101.23269829999481,102.23365219999687,102.23215090999437,105.96444419999898,104.24824190000072,4.7221467570875575,None,1,,,001,2023-11-02_10h29.47.006,Oddball_task,2022.2.5,60.27509553794457,
target,soundFiles/1200Hz_-3dBFS_3s_44.1kHz.wav',t,60,3,3,15,3,,,,,105.96444419999898,106.96457419999933,106.96477960999763,109.49833479999506,108.96446799999103,3.5294815877850714,None,0,,,001,2023-11-02_10h29.47.006,Oddball_task,2022.2.5,60.27509553794457,
target,soundFiles/1200Hz_-3dBFS_3s_44.1kHz.wav',t,60,4,0,16,3,,,,,109.49833479999506,110.49859479999577,110.49809981000143,112.83156599999347,112.49838119999913,3.3210897803466826,None,0,,,001,2023-11-02_10h29.47.006,Oddball_task,2022.2.5,60.27509553794457,
standard,soundFiles/1000Hz_-3dBFS_3s_44.1kHz.wav',None,40,4,1,17,2,,,,,112.83156599999347,113.83241469999484,113.83187640999094,118.51468369999202,115.84915379999438,5.668656441433573,None,1,,,001,2023-11-02_10h29.47.006,Oddball_task,2022.2.5,60.27509553794457,
standard,soundFiles/1000Hz_-3dBFS_3s_44.1kHz.wav',None,40,4,2,18,0,,,,,118.51468369999202,119.51516189999529,119.5148616099992,122.94966449998901,121.51504939999722,4.431196972322413,None,1,,,001,2023-11-02_10h29.47.006,Oddball_task,2022.2.5,60.27509553794457,
standard,soundFiles/1000Hz_-3dBFS_3s_44.1kHz.wav',None,40,4,3,19,1,,,,,122.94966449998901,123.9490525000001,123.94856790999765,126.9814417000016,125.94860740000149,4.032783877417856,None,1,,,001,2023-11-02_10h29.47.006,Oddball_task,2022.2.5,60.27509553794457,
target,soundFiles/1200Hz_-3dBFS_3s_44.1kHz.wav',t,60,5,0,20,3,,,,,126.9814417000016,127.98254610000004,127.98181371000246,131.16511129999708,129.98209449999558,4.180307040365238,None,0,,,001,2023-11-02_10h29.47.006,Oddball_task,2022.2.5,60.27509553794457,
standard,soundFiles/1000Hz_-3dBFS_3s_44.1kHz.wav',None,40,5,1,21,2,,,,,131.16511129999708,132.1652968999988,132.16501510999805,134.2654188000015,134.16617789999873,3.08496037945743,None,1,,,001,2023-11-02_10h29.47.006,Oddball_task,2022.2.5,60.27509553794457,
standard,soundFiles/1000Hz_-3dBFS_3s_44.1kHz.wav',None,40,5,2,22,1,,,,,134.2654188000015,135.26568729999417,135.26559761000098,136.98177549999673,137.26542129999143,2.711998724631284,None,1,,,001,2023-11-02_10h29.47.006,Oddball_task,2022.2.5,60.27509553794457,
standard,soundFiles/1000Hz_-3dBFS_3s_44.1kHz.wav',None,40,5,3,23,0,,,,,137.26542129999143,138.26545229999465,138.26510050999931,140.6818396000017,140.2650796999951,3.4115238811093693,None,1,,,001,2023-11-02_10h29.47.006,Oddball_task,2022.2.5,60.27509553794457,
standard,soundFiles/1000Hz_-3dBFS_3s_44.1kHz.wav',None,40,6,0,24,2,,,,,140.6818396000017,141.6816031999915,141.68171400999708,143.38189239999338,143.6822600000014,2.691823301821833,None,1,,,001,2023-11-02_10h29.47.006,Oddball_task,2022.2.5,60.27509553794457,
target,soundFiles/1200Hz_-3dBFS_3s_44.1kHz.wav',t,60,6,1,25,3,,,,,143.6822600000014,144.68159670000023,144.6816190100013,148.7156677000021,146.68289909999294,5.032212635228343,None,0,145.68309599999338,,001,2023-11-02_10h29.47.006,Oddball_task,2022.2.5,60.27509553794457,
standard,soundFiles/1000Hz_-3dBFS_3s_44.1kHz.wav',None,40,6,2,26,0,,,,,148.7156677000021,149.7152703999891,149.7150475100003,154.44906849999097,151.715102999995,5.716960671848863,None,1,,,001,2023-11-02_10h29.47.006,Oddball_task,2022.2.5,60.27509553794457,
standard,soundFiles/1000Hz_-3dBFS_3s_44.1kHz.wav',None,40,6,3,27,1,,,,,154.44906849999097,155.44869079999626,155.44923551000247,159.116958899991,157.4488130999962,4.662032475665725,None,1,,,001,2023-11-02_10h29.47.006,Oddball_task,2022.2.5,60.27509553794457,
standard,soundFiles/1000Hz_-3dBFS_3s_44.1kHz.wav',None,40,7,0,28,1,,,,,159.116958899991,160.11653569999908,160.1154962099914,164.0332580999966,162.11538079999445,4.915063990241387,None,1,,,001,2023-11-02_10h29.47.006,Oddball_task,2022.2.5,60.27509553794457,
target,soundFiles/1200Hz_-3dBFS_3s_44.1kHz.wav',t,60,7,1,29,3,,,,,164.0332580999966,165.0326378999889,165.03189090999658,166.36578579999332,167.0321915999957,2.3304565443278618,None,0,,,001,2023-11-02_10h29.47.006,Oddball_task,2022.2.5,60.27509553794457,
standard,soundFiles/1000Hz_-3dBFS_3s_44.1kHz.wav',None,40,7,2,30,0,,,,,167.0321915999957,168.0327505000023,168.0326260099915,172.24906389998796,170.03243019999354,5.209587655770342,None,1,,,001,2023-11-02_10h29.47.006,Oddball_task,2022.2.5,60.27509553794457,
standard,soundFiles/1000Hz_-3dBFS_3s_44.1kHz.wav',None,40,7,3,31,2,,,,,172.24906389998796,173.24906380000175,173.2489674100012,174.4324406999949,175.2490942000004,2.17087225637632,None,1,,,001,2023-11-02_10h29.47.006,Oddball_task,2022.2.5,60.27509553794457,
target,soundFiles/1200Hz_-3dBFS_3s_44.1kHz.wav',t,60,8,0,32,3,,,,,175.2490942000004,176.2485827999917,176.2488525099994,180.64878339999996,178.24915129999863,5.384087744664672,None,0,,,001,2023-11-02_10h29.47.006,Oddball_task,2022.2.5,60.27509553794457,
standard,soundFiles/1000Hz_-3dBFS_3s_44.1kHz.wav',None,40,8,1,33,2,,,,,180.64878339999996,181.64891479999642,181.64885200998978,184.13275559998874,183.6489406999899,3.482398265518761,None,1,,,001,2023-11-02_10h29.47.006,Oddball_task,2022.2.5,60.27509553794457,
standard,soundFiles/1000Hz_-3dBFS_3s_44.1kHz.wav',None,40,8,2,34,0,,,,,184.13275559998874,185.13317570000072,185.1331744099967,186.81856489999336,187.1329204999929,2.684600380636982,None,1,,,001,2023-11-02_10h29.47.006,Oddball_task,2022.2.5,60.27509553794457,
standard,soundFiles/1000Hz_-3dBFS_3s_44.1kHz.wav',None,40,8,3,35,1,,,,,187.1329204999929,188.13333859998966,188.13327441000146,191.0660394000006,190.13263179999194,3.9318639918782754,None,1,189.13312230000156,,001,2023-11-02_10h29.47.006,Oddball_task,2022.2.5,60.27509553794457,
standard,soundFiles/1000Hz_-3dBFS_3s_44.1kHz.wav',None,40,9,0,36,1,,,,,191.0660394000006,192.06596359999094,192.0666902099998,194.9990875999938,194.06564659999276,3.9267360822707578,None,1,,,001,2023-11-02_10h29.47.006,Oddball_task,2022.2.5,60.27509553794457,
target,soundFiles/1200Hz_-3dBFS_3s_44.1kHz.wav',t,60,9,1,37,3,,,,,194.9990875999938,195.9989205999882,195.99923450999776,199.99927669999306,197.99893049999082,4.9896234828849995,None,0,,,001,2023-11-02_10h29.47.006,Oddball_task,2022.2.5,60.27509553794457,
standard,soundFiles/1000Hz_-3dBFS_3s_44.1kHz.wav',None,40,9,2,38,0,,,,,199.99927669999306,200.99918400000024,200.99894590999756,205.26567149999028,202.99913379999634,5.266026993726607,None,1,,,001,2023-11-02_10h29.47.006,Oddball_task,2022.2.5,60.27509553794457,
standard,soundFiles/1000Hz_-3dBFS_3s_44.1kHz.wav',None,40,9,3,39,2,,,,,205.26567149999028,206.26684689999092,206.26585720999864,210.2493104000023,208.26626920000126,4.979009406902549,None,1,,,001,2023-11-02_10h29.47.006,Oddball_task,2022.2.5,60.27509553794457,
standard,soundFiles/1000Hz_-3dBFS_3s_44.1kHz.wav',None,40,10,0,40,1,,,,,210.2493104000023,211.23295209999196,211.23344391000282,214.86602829999174,213.23312720000104,4.612528034485368,None,1,,,001,2023-11-02_10h29.47.006,Oddball_task,2022.2.5,60.27509553794457,
target,soundFiles/1200Hz_-3dBFS_3s_44.1kHz.wav',t,60,10,1,41,3,,,,,214.86602829999174,215.86615149999852,215.86641420999658,217.68310480000218,217.86669509999047,2.8042372413953167,None,0,,,001,2023-11-02_10h29.47.006,Oddball_task,2022.2.5,60.27509553794457,
standard,soundFiles/1000Hz_-3dBFS_3s_44.1kHz.wav',None,40,10,2,42,0,,,,,217.86669509999047,218.8672130999912,218.86925360999302,222.95087960000092,220.86639379999542,5.077895367080622,None,1,,,001,2023-11-02_10h29.47.006,Oddball_task,2022.2.5,60.27509553794457,
standard,soundFiles/1000Hz_-3dBFS_3s_44.1kHz.wav',None,40,10,3,43,2,,,,,222.95087960000092,223.94916869999724,223.9499320099945,224.99969089998922,225.94941390000167,2.043066319111972,None,1,,,001,2023-11-02_10h29.47.006,Oddball_task,2022.2.5,60.27509553794457,
standard,soundFiles/1000Hz_-3dBFS_3s_44.1kHz.wav',None,40,11,0,44,2,,,,,225.94941390000167,226.94979329999478,226.94975380999094,231.93280629999936,228.94950699999754,5.974542535471757,None,1,,,001,2023-11-02_10h29.47.006,Oddball_task,2022.2.5,60.27509553794457,
target,soundFiles/1200Hz_-3dBFS_3s_44.1kHz.wav',t,60,11,1,45,3,,,,,231.93280629999936,232.93297539999185,232.93259080999414,236.88336069999787,234.93317609999212,4.9360255895889855,None,0,233.9329308000015,,001,2023-11-02_10h29.47.006,Oddball_task,2022.2.5,60.27509553794457,
standard,soundFiles/1000Hz_-3dBFS_3s_44.1kHz.wav',None,40,11,2,46,1,,,,,236.88336069999787,237.88344749998942,237.8830690099945,241.43328620000102,239.88342399999965,4.538564868496251,None,1,238.88331369998923,,001,2023-11-02_10h29.47.006,Oddball_task,2022.2.5,60.27509553794457,
standard,soundFiles/1000Hz_-3dBFS_3s_44.1kHz.wav',None,40,11,3,47,0,,,,,241.43328620000102,242.433867499989,242.43338900998933,243.91648039998836,244.43286689999513,2.4711622563889475,None,1,,,001,2023-11-02_10h29.47.006,Oddball_task,2022.2.5,60.27509553794457,
standard,soundFiles/1000Hz_-3dBFS_3s_44.1kHz.wav',None,40,12,0,48,2,,,,,244.43286689999513,245.4329499000014,245.4329011099995,249.61725029999798,247.43382039999415,5.1843568877849595,None,1,,,001,2023-11-02_10h29.47.006,Oddball_task,2022.2.5,60.27509553794457,
target,soundFiles/1200Hz_-3dBFS_3s_44.1kHz.wav',t,60,12,1,49,3,,,,,249.61725029999798,250.61693189998914,250.61712050999049,252.75159529999655,252.61606159999792,3.1284981698249683,None,0,,,001,2023-11-02_10h29.47.006,Oddball_task,2022.2.5,60.27509553794457,
standard,soundFiles/1000Hz_-3dBFS_3s_44.1kHz.wav',None,40,12,2,50,0,,,,,252.75159529999655,253.750152099994,253.74956640999298,255.7835664000013,255.7500973999995,3.031065738127789,None,1,,,001,2023-11-02_10h29.47.006,Oddball_task,2022.2.5,60.27509553794457,
standard,soundFiles/1000Hz_-3dBFS_3s_44.1kHz.wav',None,40,12,3,51,1,,,,,255.7835664000013,256.78277379999054,256.7832004099997,261.51646769999934,258.7831331999914,5.7212802997495205,None,1,,,001,2023-11-02_10h29.47.006,Oddball_task,2022.2.5,60.27509553794457,
standard,soundFiles/1000Hz_-3dBFS_3s_44.1kHz.wav',None,40,13,0,52,1,,,,,261.51646769999934,262.51664979998895,262.5161503099895,264.1831443999981,264.5165563999908,2.6575449625297587,None,1,,,001,2023-11-02_10h29.47.006,Oddball_task,2022.2.5,60.27509553794457,
standard,soundFiles/1000Hz_-3dBFS_3s_44.1kHz.wav',None,40,13,1,53,0,,,,,264.5165563999908,265.5172440000024,265.51659070999597,269.04950909999025,267.5158517999953,4.53276602824009,None,1,,,001,2023-11-02_10h29.47.006,Oddball_task,2022.2.5,60.27509553794457,
standard,soundFiles/1000Hz_-3dBFS_3s_44.1kHz.wav',None,40,13,2,54,2,,,,,269.04950909999025,270.04991000000155,270.05005870999014,274.99992969998857,272.05026829999406,5.934795036568087,None,1,,,001,2023-11-02_10h29.47.006,Oddball_task,2022.2.5,60.27509553794457,
target,soundFiles/1200Hz_-3dBFS_3s_44.1kHz.wav',t,60,13,3,55,3,,,,,274.99992969998857,276.0004302000016,275.9999941099901,280.43324269998993,278.0004862999922,5.4197780953342924,None,0,,,001,2023-11-02_10h29.47.006,Oddball_task,2022.2.5,60.27509553794457,
standard,soundFiles/1000Hz_-3dBFS_3s_44.1kHz.wav',None,40,14,0,56,2,,,,,280.43324269998993,281.4178907000023,281.41824020999195,284.41661410000233,283.4345093000011,3.9818685761201347,None,1,,,001,2023-11-02_10h29.47.006,Oddball_task,2022.2.5,60.27509553794457,
standard,soundFiles/1000Hz_-3dBFS_3s_44.1kHz.wav',None,40,14,1,57,1,,,,,284.41661410000233,285.41680029999407,285.416611510003,289.7498995999922,287.41700950000086,5.327703748793548,None,1,,,001,2023-11-02_10h29.47.006,Oddball_task,2022.2.5,60.27509553794457,
target,soundFiles/1200Hz_-3dBFS_3s_44.1kHz.wav',t,60,14,2,58,3,,,,,289.7498995999922,290.7504450999986,290.7505277099932,295.0345212999964,292.7507379000017,5.270449374722261,None,0,,,001,2023-11-02_10h29.47.006,Oddball_task,2022.2.5,60.27509553794457,
standard,soundFiles/1000Hz_-3dBFS_3s_44.1kHz.wav',None,40,14,3,59,0,,,,,295.0345212999964,296.0341972999886,296.03337110998984,298.11705699999584,298.03356549999444,3.0780462159208524,None,1,,,001,2023-11-02_10h29.47.006,Oddball_task,2022.2.5,60.27509553794457,
target,soundFiles/1200Hz_-3dBFS_3s_44.1kHz.wav',t,60,15,0,60,3,,,,,298.11705699999584,299.1176078999997,299.1168756100029,302.35020989998884,301.1179889999912,4.229071614156759,None,0,,,001,2023-11-02_10h29.47.006,Oddball_task,2022.2.5,60.27509553794457,
standard,soundFiles/1000Hz_-3dBFS_3s_44.1kHz.wav',None,40,15,1,61,1,,,,,302.35020989998884,303.35074090000126,303.35024070999646,305.16661909999675,305.3499678999942,2.805023545975954,None,1,,,001,2023-11-02_10h29.47.006,Oddball_task,2022.2.5,60.27509553794457,
standard,soundFiles/1000Hz_-3dBFS_3s_44.1kHz.wav',None,40,15,2,62,0,,,,,305.3499678999942,306.35033229998953,306.35020820999637,307.850093999994,308.3508765000006,2.494079212792392,None,1,,,001,2023-11-02_10h29.47.006,Oddball_task,2022.2.5,60.27509553794457,
standard,soundFiles/1000Hz_-3dBFS_3s_44.1kHz.wav',None,40,15,3,63,2,,,,,308.3508765000006,309.3502346000023,309.3503419099958,314.0003471999953,311.35015739999653,5.645256558399863,None,1,,,001,2023-11-02_10h29.47.006,Oddball_task,2022.2.5,60.27509553794457,
standard,soundFiles/1000Hz_-3dBFS_3s_44.1kHz.wav',None,40,16,0,64,0,,,,,314.0003471999953,314.9850179999921,314.9846667100006,316.45061780000106,317.00052739999956,2.4473391220259804,None,1,,,001,2023-11-02_10h29.47.006,Oddball_task,2022.2.5,60.27509553794457,
standard,soundFiles/1000Hz_-3dBFS_3s_44.1kHz.wav',None,40,16,1,65,2,,,,,317.00052739999956,318.00025019999885,318.00011490999316,321.40129939999315,320.0001654999942,4.397750531783556,None,1,,,001,2023-11-02_10h29.47.006,Oddball_task,2022.2.5,60.27509553794457,
standard,soundFiles/1000Hz_-3dBFS_3s_44.1kHz.wav',None,40,16,2,66,1,,,,,321.40129939999315,322.4006740999903,322.40093671000216,324.28350029999274,324.4006912999903,2.8726080885275875,None,1,323.40060249999806,,001,2023-11-02_10h29.47.006,Oddball_task,2022.2.5,60.27509553794457,
target,soundFiles/1200Hz_-3dBFS_3s_44.1kHz.wav',t,60,16,3,67,3,,,,,324.4006912999903,325.4011521999928,325.4004041099921,327.66675759998907,327.4011285000015,3.2564618622586425,None,0,,,001,2023-11-02_10h29.47.006,Oddball_task,2022.2.5,60.27509553794457,
target,soundFiles/1200Hz_-3dBFS_3s_44.1kHz.wav',t,60,17,0,68,3,,,,,327.66675759998907,328.66707229999884,328.6671502100013,331.20019859999593,330.66701069999544,3.5211109659934126,None,0,,,001,2023-11-02_10h29.47.006,Oddball_task,2022.2.5,60.27509553794457,
standard,soundFiles/1000Hz_-3dBFS_3s_44.1kHz.wav',None,40,17,1,69,0,,,,,331.20019859999593,332.20063229999505,332.20062580999513,336.66716579999775,334.20078049998847,5.466867134399177,None,1,,,001,2023-11-02_10h29.47.006,Oddball_task,2022.2.5,60.27509553794457,
standard,soundFiles/1000Hz_-3dBFS_3s_44.1kHz.wav',None,40,17,2,70,2,,,,,336.66716579999775,337.6674267999915,337.66720060999216,341.4670967999991,339.6685623999947,4.793023878317111,None,1,,,001,2023-11-02_10h29.47.006,Oddball_task,2022.2.5,60.27509553794457,
standard,soundFiles/1000Hz_-3dBFS_3s_44.1kHz.wav',None,40,17,3,71,1,,,,,341.4670967999991,342.4516947999946,342.4515438100003,347.0340381999995,344.4505206999893,5.554177337543388,None,1,,,001,2023-11-02_10h29.47.006,Oddball_task,2022.2.5,60.27509553794457,
target,soundFiles/1200Hz_-3dBFS_3s_44.1kHz.wav',t,60,18,0,72,3,,,,,347.0340381999995,348.03449510000064,348.034317509993,351.734942199997,350.0350580999948,4.693757640370492,None,0,,,001,2023-11-02_10h29.47.006,Oddball_task,2022.2.5,60.27509553794457,
standard,soundFiles/1000Hz_-3dBFS_3s_44.1kHz.wav',None,40,18,1,73,2,,,,,351.734942199997,352.73523099999875,352.7350001099927,357.1673972999997,354.7341301999986,5.433048712581094,None,1,,,001,2023-11-02_10h29.47.006,Oddball_task,2022.2.5,60.27509553794457,
standard,soundFiles/1000Hz_-3dBFS_3s_44.1kHz.wav',None,40,18,2,74,1,,,,,357.1673972999997,358.15108849998796,358.1522928099963,362.2011954999907,360.1506898999942,5.033497036621492,None,1,,,001,2023-11-02_10h29.47.006,Oddball_task,2022.2.5,60.27509553794457,
standard,soundFiles/1000Hz_-3dBFS_3s_44.1kHz.wav',None,40,18,3,75,0,,,,,362.2011954999907,363.20063589999336,363.2012581099931,364.4682019999891,365.20109349999984,2.2610558051366665,None,1,,,001,2023-11-02_10h29.47.006,Oddball_task,2022.2.5,60.27509553794457,
standard,soundFiles/1000Hz_-3dBFS_3s_44.1kHz.wav',None,40,19,0,76,2,,,,,365.20109349999984,366.20083439999144,366.2006911099976,368.86778409998806,368.2008941999957,3.65151296905813,None,1,,,001,2023-11-02_10h29.47.006,Oddball_task,2022.2.5,60.27509553794457,
standard,soundFiles/1000Hz_-3dBFS_3s_44.1kHz.wav',None,40,19,1,77,0,,,,,368.86778409998806,369.8672391,369.8677149099909,371.0006895999977,371.86796160000085,2.118110711882357,None,1,,,001,2023-11-02_10h29.47.006,Oddball_task,2022.2.5,60.27509553794457,
target,soundFiles/1200Hz_-3dBFS_3s_44.1kHz.wav',t,60,19,2,78,3,,,,,371.86796160000085,372.86819079999987,372.86862280999196,375.1350890999893,374.8675468000001,3.262327653694896,None,0,,,001,2023-11-02_10h29.47.006,Oddball_task,2022.2.5,60.27509553794457,
standard,soundFiles/1000Hz_-3dBFS_3s_44.1kHz.wav',None,40,19,3,79,1,,,,,375.1350890999893,376.1341715999879,376.1343123100029,379.8181278999982,378.134544799992,4.674249243980949,None,1,,,001,2023-11-02_10h29.47.006,Oddball_task,2022.2.5,60.27509553794457,
target,soundFiles/1200Hz_-3dBFS_3s_44.1kHz.wav',t,60,20,0,80,3,,,,,379.8181278999982,380.8176659999881,380.8177337100002,384.73440599998867,382.81789299999946,4.901711893291198,None,0,,,001,2023-11-02_10h29.47.006,Oddball_task,2022.2.5,60.27509553794457,
standard,soundFiles/1000Hz_-3dBFS_3s_44.1kHz.wav',None,40,20,1,81,2,,,,,384.73440599998867,385.7350535000005,385.7348911099922,388.234487099995,387.7346966999903,3.4941073017761295,None,1,,,001,2023-11-02_10h29.47.006,Oddball_task,2022.2.5,60.27509553794457,
standard,soundFiles/1000Hz_-3dBFS_3s_44.1kHz.wav',None,40,20,2,82,0,,,,,388.234487099995,389.2348443999945,389.2342635100009,393.6347023999988,391.23474149999674,5.396037602420776,None,1,390.23471289999725,,001,2023-11-02_10h29.47.006,Oddball_task,2022.2.5,60.27509553794457,
standard,soundFiles/1000Hz_-3dBFS_3s_44.1kHz.wav',None,40,20,3,83,1,,,,,393.6347023999988,394.6346370999963,394.6341598099913,397.85118669999065,396.6350606999913,4.214659862155855,None,1,,,001,2023-11-02_10h29.47.006,Oddball_task,2022.2.5,60.27509553794457,
standard,soundFiles/1000Hz_-3dBFS_3s_44.1kHz.wav',None,40,21,0,84,0,,,,,397.85118669999065,398.8507654999994,398.85131060999413,403.11800349999976,400.8511756999942,5.256602497882339,None,1,,,001,2023-11-02_10h29.47.006,Oddball_task,2022.2.5,60.27509553794457,
standard,soundFiles/1000Hz_-3dBFS_3s_44.1kHz.wav',None,40,21,1,85,2,,,,,403.11800349999976,404.11821780000173,404.1181951099949,406.60141619999195,406.11813039999106,3.4764797846236988,None,1,,,001,2023-11-02_10h29.47.006,Oddball_task,2022.2.5,60.27509553794457,
target,soundFiles/1200Hz_-3dBFS_3s_44.1kHz.wav',t,60,21,2,86,3,,,,,406.60141619999195,407.6010494999937,407.60110160998886,410.10110839999106,409.60169679998944,3.4855050440734345,None,0,,,001,2023-11-02_10h29.47.006,Oddball_task,2022.2.5,60.27509553794457,
standard,soundFiles/1000Hz_-3dBFS_3s_44.1kHz.wav',None,40,21,3,87,1,,,,,410.10110839999106,411.08441479998874,411.0851459100028,412.701742499994,413.0846252999909,2.5929562591856934,None,1,,,001,2023-11-02_10h29.47.006,Oddball_task,2022.2.5,60.27509553794457,
standard,soundFiles/1000Hz_-3dBFS_3s_44.1kHz.wav',None,40,22,0,88,2,,,,,413.0846252999909,414.06795209999837,414.06854290999183,417.38612830000056,416.0683386000019,4.301499172860872,None,1,415.06846199999563,,001,2023-11-02_10h29.47.006,Oddball_task,2022.2.5,60.27509553794457,
standard,soundFiles/1000Hz_-3dBFS_3s_44.1kHz.wav',None,40,22,1,89,1,,,,,417.38612830000056,418.3850578999991,418.3845943099965,420.6679499999882,420.3859389999998,3.276682625651576,None,1,,,001,2023-11-02_10h29.47.006,Oddball_task,2022.2.5,60.27509553794457,
standard,soundFiles/1000Hz_-3dBFS_3s_44.1kHz.wav',None,40,22,2,90,0,,,,,420.6679499999882,421.66852979999385,421.6681160099921,423.53585129999556,423.66816069999186,2.866595711504743,None,1,,,001,2023-11-02_10h29.47.006,Oddball_task,2022.2.5,60.27509553794457,
target,soundFiles/1200Hz_-3dBFS_3s_44.1kHz.wav',t,60,22,3,91,3,,,,,423.66816069999186,424.66827679998823,424.66852850998987,426.868198199998,426.66807929999777,3.1870588425604507,None,0,,,001,2023-11-02_10h29.47.006,Oddball_task,2022.2.5,60.27509553794457,
standard,soundFiles/1000Hz_-3dBFS_3s_44.1kHz.wav',None,40,23,0,92,1,,,,,426.868198199998,427.86779319999914,427.86789370999907,431.6847787000006,429.8680372999952,4.816273334067349,None,1,,,001,2023-11-02_10h29.47.006,Oddball_task,2022.2.5,60.27509553794457,
target,soundFiles/1200Hz_-3dBFS_3s_44.1kHz.wav',t,60,23,1,93,3,,,,,431.6847787000006,432.6856647999957,432.6849551099964,437.1347820999945,434.68533949999255,5.436851367872471,None,0,433.6850157000008,,001,2023-11-02_10h29.47.006,Oddball_task,2022.2.5,60.27509553794457,
standard,soundFiles/1000Hz_-3dBFS_3s_44.1kHz.wav',None,40,23,2,94,0,,,,,437.1347820999945,438.1345983999927,438.1353513099981,441.0018330999883,440.1348463999893,3.8554951683491647,None,1,,,001,2023-11-02_10h29.47.006,Oddball_task,2022.2.5,60.27509553794457,
standard,soundFiles/1000Hz_-3dBFS_3s_44.1kHz.wav',None,40,23,3,95,2,,,,,441.0018330999883,442.0026012999879,442.00182631000064,444.635323399998,444.0016990000004,3.6331145470837813,None,1,,,001,2023-11-02_10h29.47.006,Oddball_task,2022.2.5,60.27509553794457,
target,soundFiles/1200Hz_-3dBFS_3s_44.1kHz.wav',t,60,24,0,96,3,,,,,444.635323399998,445.63516679999884,445.6355604099896,446.6849680000014,447.63554499999736,2.040452523848455,None,0,,,001,2023-11-02_10h29.47.006,Oddball_task,2022.2.5,60.27509553794457,
standard,soundFiles/1000Hz_-3dBFS_3s_44.1kHz.wav',None,40,24,1,97,1,,,,,447.63554499999736,448.6355928999983,448.6348074099893,451.6515719000017,450.6355654999934,4.010478870178091,None,1,449.6353587999911,,001,2023-11-02_10h29.47.006,Oddball_task,2022.2.5,60.27509553794457,
standard,soundFiles/1000Hz_-3dBFS_3s_44.1kHz.wav',None,40,24,2,98,2,,,,,451.6515719000017,452.65204119999544,452.6521596100007,456.50193610000133,454.65159939999285,4.837821431165853,None,1,,,001,2023-11-02_10h29.47.006,Oddball_task,2022.2.5,60.27509553794457,
standard,soundFiles/1000Hz_-3dBFS_3s_44.1kHz.wav',None,40,24,3,99,0,,,,,456.50193610000133,457.50185039998905,457.50186160999294,459.78554240000085,459.50279189999856,3.2804856487341194,None,1,,,001,2023-11-02_10h29.47.006,Oddball_task,2022.2.5,60.27509553794457,
standard,soundFiles/1000Hz_-3dBFS_3s_44.1kHz.wav',None,40,25,0,100,0,,,,,459.78554240000085,460.7854576999962,460.7849774099974,462.585640099991,462.78552359998866,2.790630777477971,None,1,,,001,2023-11-02_10h29.47.006,Oddball_task,2022.2.5,60.27509553794457,
standard,soundFiles/1000Hz_-3dBFS_3s_44.1kHz.wav',None,40,25,1,101,1,,,,,462.78552359998866,463.7862293999933,463.78606650999575,467.51821049999853,465.7856039999897,4.7297354848126085,None,1,464.7854051999893,,001,2023-11-02_10h29.47.006,Oddball_task,2022.2.5,60.27509553794457,
standard,soundFiles/1000Hz_-3dBFS_3s_44.1kHz.wav',None,40,25,2,102,2,,,,,467.51821049999853,468.518339199989,468.5187342099904,472.1183785999892,470.5181689000019,4.599452351406356,None,1,,,001,2023-11-02_10h29.47.006,Oddball_task,2022.2.5,60.27509553794457,
target,soundFiles/1200Hz_-3dBFS_3s_44.1kHz.wav',t,60,25,3,103,3,,,,,472.1183785999892,473.1192680999957,473.118617209993,475.30215599999065,475.1203158999997,3.1791947231016096,None,0,,,001,2023-11-02_10h29.47.006,Oddball_task,2022.2.5,60.27509553794457,
standard,soundFiles/1000Hz_-3dBFS_3s_44.1kHz.wav',None,40,26,0,104,2,,,,,475.30215599999065,476.3019091999886,476.30235911000057,478.21844689999125,478.3026792999881,2.9124131756361282,None,1,,,001,2023-11-02_10h29.47.006,Oddball_task,2022.2.5,60.27509553794457,
target,soundFiles/1200Hz_-3dBFS_3s_44.1kHz.wav',t,60,26,1,105,3,,,,,478.3026792999881,479.3014661999914,479.30166921000057,482.20266450000054,481.30285749999166,3.8944949266326043,None,0,,,001,2023-11-02_10h29.47.006,Oddball_task,2022.2.5,60.27509553794457,
standard,soundFiles/1000Hz_-3dBFS_3s_44.1kHz.wav',None,40,26,2,106,0,,,,,482.20266450000054,483.20191469999554,483.2024639099924,485.80196219999925,485.2022755999933,3.590692440710109,None,1,,,001,2023-11-02_10h29.47.006,Oddball_task,2022.2.5,60.27509553794457,
standard,soundFiles/1000Hz_-3dBFS_3s_44.1kHz.wav',None,40,26,3,107,1,,,,,485.80196219999925,486.80205499999283,486.80162100999735,490.1360990999965,488.80215569998836,4.3283449134705485,None,1,,,001,2023-11-02_10h29.47.006,Oddball_task,2022.2.5,60.27509553794457,
standard,soundFiles/1000Hz_-3dBFS_3s_44.1kHz.wav',None,40,27,0,108,1,,,,,490.1360990999965,491.122709999996,491.1233912099939,492.85265059999074,493.1363243999949,2.713907806639588,None,1,,,001,2023-11-02_10h29.47.006,Oddball_task,2022.2.5,60.27509553794457,
standard,soundFiles/1000Hz_-3dBFS_3s_44.1kHz.wav',None,40,27,1,109,2,,,,,493.1363243999949,494.13554429999203,494.13547670999253,496.73698349999904,496.13556419999804,3.5974052997401293,None,1,,,001,2023-11-02_10h29.47.006,Oddball_task,2022.2.5,60.27509553794457,
target,soundFiles/1200Hz_-3dBFS_3s_44.1kHz.wav',t,60,27,2,110,3,,,,,496.73698349999904,497.7355017999944,497.7357947099896,500.5522848999972,499.73548909999954,3.8032874421212166,None,0,,,001,2023-11-02_10h29.47.006,Oddball_task,2022.2.5,60.27509553794457,
standard,soundFiles/1000Hz_-3dBFS_3s_44.1kHz.wav',None,40,27,3,111,0,,,,,500.5522848999972,501.5521039000014,501.5526249100018,504.002236299988,503.5523175999988,3.44264174190642,None,1,,,001,2023-11-02_10h29.47.006,Oddball_task,2022.2.5,60.27509553794457,
standard,soundFiles/1000Hz_-3dBFS_3s_44.1kHz.wav',None,40,28,0,112,1,,,,,504.002236299988,505.00223859999096,505.002291609993,507.25227050000103,507.00212589999137,3.2356531283594183,None,1,,,001,2023-11-02_10h29.47.006,Oddball_task,2022.2.5,60.27509553794457,
standard,soundFiles/1000Hz_-3dBFS_3s_44.1kHz.wav',None,40,28,1,113,0,,,,,507.25227050000103,508.25200219999533,508.2523795099929,511.5356155999907,510.25251520000165,4.268304075914173,None,1,,,001,2023-11-02_10h29.47.006,Oddball_task,2022.2.5,60.27509553794457,
target,soundFiles/1200Hz_-3dBFS_3s_44.1kHz.wav',t,60,28,2,114,3,,,,,511.5356155999907,512.5358885000023,512.5360194100009,514.8688825999998,514.535951599988,3.3239862845387385,None,0,,,001,2023-11-02_10h29.47.006,Oddball_task,2022.2.5,60.27509553794457,
standard,soundFiles/1000Hz_-3dBFS_3s_44.1kHz.wav',None,40,28,3,115,2,,,,,514.8688825999998,515.8694751000003,515.8689661100012,517.3688158000004,517.8692435999983,2.489774926348224,None,1,,,001,2023-11-02_10h29.47.006,Oddball_task,2022.2.5,60.27509553794457,
standard,soundFiles/1000Hz_-3dBFS_3s_44.1kHz.wav',None,40,29,0,116,2,,,,,517.8692435999983,518.8701202999946,518.87013230999,523.487438199998,520.8707111999975,5.610030437732392,None,1,,,001,2023-11-02_10h29.47.006,Oddball_task,2022.2.5,60.27509553794457,
standard,soundFiles/1000Hz_-3dBFS_3s_44.1kHz.wav',None,40,29,1,117,0,,,,,523.487438199998,524.4866565999982,524.4857427100011,525.6856489999918,526.4858819999936,2.1923503041289347,None,1,,,001,2023-11-02_10h29.47.006,Oddball_task,2022.2.5,60.27509553794457,
standard,soundFiles/1000Hz_-3dBFS_3s_44.1kHz.wav',None,40,29,2,118,1,,,,,526.4858819999936,527.4855264999933,527.4855521099904,530.1026731999882,529.486564699997,3.602321385702811,None,1,,,001,2023-11-02_10h29.47.006,Oddball_task,2022.2.5,60.27509553794457,
target,soundFiles/1200Hz_-3dBFS_3s_44.1kHz.wav',t,60,29,3,119,3,,,,,530.1026731999882,531.1026894999959,531.1027483099984,533.3524771999946,533.102857299993,3.2345802314109644,None,0,,,001,2023-11-02_10h29.47.006,Oddball_task,2022.2.5,60.27509553794457,
target,soundFiles/1200Hz_-3dBFS_3s_44.1kHz.wav',t,60,30,0,120,3,,,,,533.3524771999946,534.3522211999953,534.3526632099907,537.4194863000012,536.3530640999961,4.0669592707690665,None,0,,,001,2023-11-02_10h29.47.006,Oddball_task,2022.2.5,60.27509553794457,
standard,soundFiles/1000Hz_-3dBFS_3s_44.1kHz.wav',None,40,30,1,121,2,,,,,537.4194863000012,538.4193842999957,538.4188304099895,542.8034717999981,540.4192448999966,5.370963256361907,None,1,,,001,2023-11-02_10h29.47.006,Oddball_task,2022.2.5,60.27509553794457,
standard,soundFiles/1000Hz_-3dBFS_3s_44.1kHz.wav',None,40,30,2,122,0,,,,,542.8034717999981,543.8025482999947,543.8029203099956,546.1024897999887,545.8025912000012,3.2914078438444485,None,1,,,001,2023-11-02_10h29.47.006,Oddball_task,2022.2.5,60.27509553794457,
standard,soundFiles/1000Hz_-3dBFS_3s_44.1kHz.wav',None,40,30,3,123,1,,,,,546.1024897999887,547.1025194999966,547.102857909989,551.0690813999972,549.1023940000014,4.958919625114437,None,1,,,001,2023-11-02_10h29.47.006,Oddball_task,2022.2.5,60.27509553794457,
standard,soundFiles/1000Hz_-3dBFS_3s_44.1kHz.wav',None,40,31,0,124,1,,,,,551.0690813999972,552.0697445999976,552.069487009992,556.9869077999901,554.0696726999886,5.9176160098100645,None,1,553.0697150999913,,001,2023-11-02_10h29.47.006,Oddball_task,2022.2.5,60.27509553794457,
standard,soundFiles/1000Hz_-3dBFS_3s_44.1kHz.wav',None,40,31,1,125,0,,,,,556.9869077999901,557.9872768999921,557.9860322099936,560.5362848999939,559.9865181999921,3.538417695005078,None,1,,,001,2023-11-02_10h29.47.006,Oddball_task,2022.2.5,60.27509553794457,
standard,soundFiles/1000Hz_-3dBFS_3s_44.1kHz.wav',None,40,31,2,126,2,,,,,560.5362848999939,561.536517799992,561.5359907100006,564.0031743,563.5364351999888,3.4538309362060113,None,1,,,001,2023-11-02_10h29.47.006,Oddball_task,2022.2.5,60.27509553794457,
target,soundFiles/1200Hz_-3dBFS_3s_44.1kHz.wav',t,60,31,3,127,3,,,,,564.0031743,565.0031639999943,565.0028222100024,568.1028519999963,567.0028191999882,4.091335172078749,None,0,,,001,2023-11-02_10h29.47.006,Oddball_task,2022.2.5,60.27509553794457,
standard,soundFiles/1000Hz_-3dBFS_3s_44.1kHz.wav',None,40,32,0,128,2,,,,,568.1028519999963,569.1029765999992,569.1027573099942,573.9692892000021,571.1030853999982,5.85748778661924,None,1,,,001,2023-11-02_10h29.47.006,Oddball_task,2022.2.5,60.27509553794457,
standard,soundFiles/1000Hz_-3dBFS_3s_44.1kHz.wav',None,40,32,1,129,0,,,,,573.9692892000021,574.969878399992,574.9702513099998,576.8206274999975,576.9693841999979,2.848412448424198,None,1,575.9697101999918,,001,2023-11-02_10h29.47.006,Oddball_task,2022.2.5,60.27509553794457,
standard,soundFiles/1000Hz_-3dBFS_3s_44.1kHz.wav',None,40,32,2,130,1,,,,,576.9693841999979,577.9698401999922,577.9697114099923,580.4365236000012,579.9700637999922,3.463130719251069,None,1,,,001,2023-11-02_10h29.47.006,Oddball_task,2022.2.5,60.27509553794457,
target,soundFiles/1200Hz_-3dBFS_3s_44.1kHz.wav',t,60,32,3,131,3,,,,,580.4365236000012,581.4370919999928,581.4368182099948,585.1694787000015,583.4530535999947,4.723399489862393,None,0,,,001,2023-11-02_10h29.47.006,Oddball_task,2022.2.5,60.27509553794457,
target,soundFiles/1200Hz_-3dBFS_3s_44.1kHz.wav',t,60,33,0,132,3,,,,,585.1694787000015,586.1695558999927,586.1707281099895,588.936346699993,588.1697664999956,3.75790094049748,None,0,,,001,2023-11-02_10h29.47.006,Oddball_task,2022.2.5,60.27509553794457,
standard,soundFiles/1000Hz_-3dBFS_3s_44.1kHz.wav',None,40,33,1,133,0,,,,,588.936346699993,589.9361577999953,589.9359951099992,593.3699829999969,591.9376044999954,4.421422698473405,None,1,,,001,2023-11-02_10h29.47.006,Oddball_task,2022.2.5,60.27509553794457,
standard,soundFiles/1000Hz_-3dBFS_3s_44.1kHz.wav',None,40,33,2,134,1,,,,,593.3699829999969,594.3696703000023,594.3695892100019,599.0030946999905,596.3697204999917,5.629471700964228,None,1,,,001,2023-11-02_10h29.47.006,Oddball_task,2022.2.5,60.27509553794457,
standard,soundFiles/1000Hz_-3dBFS_3s_44.1kHz.wav',None,40,33,3,135,2,,,,,599.0030946999905,600.0031854999979,600.003112510001,604.1036793999956,602.003796799996,5.087773927836043,None,1,,,001,2023-11-02_10h29.47.006,Oddball_task,2022.2.5,60.27509553794457,
standard,soundFiles/1000Hz_-3dBFS_3s_44.1kHz.wav',None,40,34,0,136,1,,,,,604.1036793999956,605.1031587999896,605.1038609100011,608.9532322000014,607.1036359999998,4.848110808630311,None,1,,,001,2023-11-02_10h29.47.006,Oddball_task,2022.2.5,60.27509553794457,
standard,soundFiles/1000Hz_-3dBFS_3s_44.1kHz.wav',None,40,34,1,137,2,,,,,608.9532322000014,609.9533873999899,609.953659209999,614.8869190999976,611.9535306999896,5.924915737869917,None,1,610.9532883999927,,001,2023-11-02_10h29.47.006,Oddball_task,2022.2.5,60.27509553794457,
target,soundFiles/1200Hz_-3dBFS_3s_44.1kHz.wav',t,60,34,2,138,3,,,,,614.8869190999976,615.8872850999905,615.8867034099909,617.8870849999948,617.8870849999948,2.998386186201891,None,0,,,001,2023-11-02_10h29.47.006,Oddball_task,2022.2.5,60.27509553794457,
standard,soundFiles/1000Hz_-3dBFS_3s_44.1kHz.wav',None,40,34,3,139,0,,,,,617.8870849999948,618.8704419999995,618.872273509996,622.2697114999901,620.8698053999979,4.383342512232592,None,1,619.8700401999959,,001,2023-11-02_10h29.47.006,Oddball_task,2022.2.5,60.27509553794457,
target,soundFiles/1200Hz_-3dBFS_3s_44.1kHz.wav',t,60,35,0,140,3,,,,,622.2697114999901,623.2699487999926,623.2697934099939,626.153418899994,625.2701238000009,3.8762503582376744,None,0,,,001,2023-11-02_10h29.47.006,Oddball_task,2022.2.5,60.27509553794457,
standard,soundFiles/1000Hz_-3dBFS_3s_44.1kHz.wav',None,40,35,1,141,2,,,,,626.153418899994,627.1537430999888,627.1529240100004,632.0196870999935,629.1533453000011,5.858800401523464,None,1,,,001,2023-11-02_10h29.47.006,Oddball_task,2022.2.5,60.27509553794457,
standard,soundFiles/1000Hz_-3dBFS_3s_44.1kHz.wav',None,40,35,2,142,1,,,,,632.0196870999935,633.0037224999978,633.0040650099924,635.5201673999982,635.0038855000021,3.4988381456991062,None,1,,,001,2023-11-02_10h29.47.006,Oddball_task,2022.2.5,60.27509553794457,
standard,soundFiles/1000Hz_-3dBFS_3s_44.1kHz.wav',None,40,35,3,143,0,,,,,635.5201673999982,636.5203725999891,636.5199279099994,640.2212940999889,638.521087199988,4.684712450070462,None,1,,,001,2023-11-02_10h29.47.006,Oddball_task,2022.2.5,60.27509553794457,
standard,soundFiles/1000Hz_-3dBFS_3s_44.1kHz.wav',None,40,36,0,144,0,,,,,640.2212940999889,641.221083299999,641.2212435100024,646.2032686999883,643.2204270999937,5.980032201857092,None,1,642.2202149999939,,001,2023-11-02_10h29.47.006,Oddball_task,2022.2.5,60.27509553794457,
standard,soundFiles/1000Hz_-3dBFS_3s_44.1kHz.wav',None,40,36,1,145,2,,,,,646.2032686999883,647.2035884999932,647.2034917099896,650.5705587999983,649.2034310999879,4.3518577041987045,None,1,,,001,2023-11-02_10h29.47.006,Oddball_task,2022.2.5,60.27509553794457,
standard,soundFiles/1000Hz_-3dBFS_3s_44.1kHz.wav',None,40,36,2,146,1,,,,,650.5705587999983,651.5705583999952,651.5704560099927,656.0036055999954,653.5710189999954,5.4210864387762365,None,1,,,001,2023-11-02_10h29.47.006,Oddball_task,2022.2.5,60.27509553794457,
target,soundFiles/1200Hz_-3dBFS_3s_44.1kHz.wav',t,60,36,3,147,3,,,,,656.0036055999954,657.0041504999972,657.0038416099939,660.220331199991,659.0035199999984,4.217161881445829,None,0,,,001,2023-11-02_10h29.47.006,Oddball_task,2022.2.5,60.27509553794457,
standard,soundFiles/1000Hz_-3dBFS_3s_44.1kHz.wav',None,40,37,0,148,1,,,,,660.220331199991,661.2201092999894,661.2203875099891,663.1369285999972,663.220315899991,2.910975935263209,None,1,,,001,2023-11-02_10h29.47.006,Oddball_task,2022.2.5,60.27509553794457,
standard,soundFiles/1000Hz_-3dBFS_3s_44.1kHz.wav',None,40,37,1,149,0,,,,,663.220315899991,664.2204940999945,664.2210765099968,668.5369267999922,666.220382200001,5.303596846841572,None,1,,,001,2023-11-02_10h29.47.006,Oddball_task,2022.2.5,60.27509553794457,
target,soundFiles/1200Hz_-3dBFS_3s_44.1kHz.wav',t,60,37,2,150,3,,,,,668.5369267999922,669.5374969999975,669.536704709995,671.7873858999956,671.5374287000013,3.2382780185066253,None,0,,,001,2023-11-02_10h29.47.006,Oddball_task,2022.2.5,60.27509553794457,
standard,soundFiles/1000Hz_-3dBFS_3s_44.1kHz.wav',None,40,37,3,151,2,,,,,671.7873858999956,672.7877710999892,672.7875514099957,675.6704886999942,674.7880651000014,3.870149201383132,None,1,,,001,2023-11-02_10h29.47.006,Oddball_task,2022.2.5,60.27509553794457,
standard,soundFiles/1000Hz_-3dBFS_3s_44.1kHz.wav',None,40,38,0,152,0,,,,,675.6704886999942,676.6707794999966,676.6707606099895,680.8044096999947,678.6703627999959,5.1309783195222645,None,1,,,001,2023-11-02_10h29.47.006,Oddball_task,2022.2.5,60.27509553794457,
standard,soundFiles/1000Hz_-3dBFS_3s_44.1kHz.wav',None,40,38,1,153,1,,,,,680.8044096999947,681.804083199997,681.804084609999,682.8702743999893,683.8039680999937,2.062800760362578,None,1,,,001,2023-11-02_10h29.47.006,Oddball_task,2022.2.5,60.27509553794457,
standard,soundFiles/1000Hz_-3dBFS_3s_44.1kHz.wav',None,40,38,2,154,2,,,,,683.8039680999937,684.8036843000009,684.8045600099955,685.8875641999912,686.8037352999963,2.069285620273162,None,1,,,001,2023-11-02_10h29.47.006,Oddball_task,2022.2.5,60.27509553794457,
target,soundFiles/1200Hz_-3dBFS_3s_44.1kHz.wav',t,60,38,3,155,3,,,,,686.8037352999963,687.8040713999944,687.8039915099886,691.6539402999915,689.8045315999916,4.84076040191057,None,0,,,001,2023-11-02_10h29.47.006,Oddball_task,2022.2.5,60.27509553794457,
target,soundFiles/1200Hz_-3dBFS_3s_44.1kHz.wav',t,60,39,0,156,3,,,,,691.6539402999915,692.6546941999986,692.6552841099998,696.0380804000015,694.6544524999917,4.370727777737029,None,0,,,001,2023-11-02_10h29.47.006,Oddball_task,2022.2.5,60.27509553794457,
standard,soundFiles/1000Hz_-3dBFS_3s_44.1kHz.wav',None,40,39,1,157,1,,,,,696.0380804000015,697.0384510000004,697.0391377099965,700.0214858999971,699.0389727000002,3.975907843403069,None,1,,,001,2023-11-02_10h29.47.006,Oddball_task,2022.2.5,60.27509553794457,
,,,,,,,,,,,,700.0214858999971,701.0221734999941,701.0219728099997,702.6541443999886,,,,,,,,,,,,
