trial,file,corrAns,tone,trials_2.thisRepN,trials_2.thisTrialN,trials_2.thisN,trials_2.thisIndex,instructions.started,key_resp_1.started,key_resp_1.keys,key_resp_1.rt,fixation.started,response.started,sound_1.started,sound_1.stopped,response.stopped,fixation.stopped,FixDur,response.keys,response.corr,response.rt,participant,session,date,expName,psychopyVersion,frameRate,
,,,,,,,,14.87728379998589,14.87728379998589,space,6.279639100015629,,,,,,,,,,,,001,2023-10-31_11h33.24.079,Oddball_task,2022.2.5,60.18353570676566,
standard,soundFiles/1000Hz_-3dBFS_3s_44.1kHz.wav',None,1000,0,0,0,2,,,,,21.189340299984906,22.174773399950936,22.17330299995374,23.17474799999036,24.175714099954348,26.140270599978976,4.947692590843481,None,1,,,001,2023-10-31_11h33.24.079,Oddball_task,2022.2.5,60.18353570676566,
standard,soundFiles/1000Hz_-3dBFS_3s_44.1kHz.wav',None,1000,0,1,1,1,,,,,26.140270599978976,27.141796999960206,27.141028399951757,,29.157267300004605,32.08993499999633,5.935244431043784,None,1,,,001,2023-10-31_11h33.24.079,Oddball_task,2022.2.5,60.18353570676566,
standard,soundFiles/1000Hz_-3dBFS_3s_44.1kHz.wav',None,1000,0,2,2,0,,,,,32.08993499999633,33.090545399987604,33.09039859999903,,35.09072829998331,35.591346799978055,3.488515285668569,None,1,,,001,2023-10-31_11h33.24.079,Oddball_task,2022.2.5,60.18353570676566,
target,soundFiles/1200Hz_-3dBFS_3s_44.1kHz.wav',t,2000,0,3,3,3,,,,,35.591346799978055,36.59082979999948,36.59039469996933,,38.590091999969445,38.92426299996441,3.318425131261063,t,1,0.6792630999698304,,001,2023-10-31_11h33.24.079,Oddball_task,2022.2.5,60.18353570676566,
target,soundFiles/1200Hz_-3dBFS_3s_44.1kHz.wav',t,2000,1,0,4,3,,,,,38.92426299996441,39.92353849997744,39.92430099998601,,41.92434179998236,41.823572399967816,2.885874298379431,t,1,0.9618136999779381,,001,2023-10-31_11h33.24.079,Oddball_task,2022.2.5,60.18353570676566,
standard,soundFiles/1000Hz_-3dBFS_3s_44.1kHz.wav',None,1000,1,1,5,0,,,,,41.92434179998236,42.924341599980835,42.92364819996292,,44.92461339995498,44.840904899989255,2.910983878978818,None,1,,,001,2023-10-31_11h33.24.079,Oddball_task,2022.2.5,60.18353570676566,
standard,soundFiles/1000Hz_-3dBFS_3s_44.1kHz.wav',None,1000,1,2,6,1,,,,,44.92461339995498,45.92463579995092,45.9236083999509,,47.924230100004934,47.34331219998421,2.4071475171599404,None,1,,,001,2023-10-31_11h33.24.079,Oddball_task,2022.2.5,60.18353570676566,
standard,soundFiles/1000Hz_-3dBFS_3s_44.1kHz.wav',None,1000,1,3,7,2,,,,,47.924230100004934,48.90817369997967,48.9094935999834,,50.90725759998895,50.45794689998729,2.5313021851571254,None,1,,,001,2023-10-31_11h33.24.079,Oddball_task,2022.2.5,60.18353570676566,
standard,soundFiles/1000Hz_-3dBFS_3s_44.1kHz.wav',None,1000,2,0,8,1,,,,,50.90725759998895,51.90708759997506,51.908353999978864,,53.90914449997945,53.52503609994892,2.606738561793573,None,1,,,001,2023-10-31_11h33.24.079,Oddball_task,2022.2.5,60.18353570676566,
target,soundFiles/1200Hz_-3dBFS_3s_44.1kHz.wav',t,2000,2,1,9,3,,,,,53.90914449997945,54.90802390000317,54.90824089999078,,56.90976819995558,59.689999700000044,5.7801284032515206,t,1,0.6811988000408746,,001,2023-10-31_11h33.24.079,Oddball_task,2022.2.5,60.18353570676566,
standard,soundFiles/1000Hz_-3dBFS_3s_44.1kHz.wav',None,1000,2,2,10,0,,,,,59.689999700000044,60.690402399981394,60.69118329995545,,62.69048499997007,61.84124869998777,2.138700624610206,None,1,,,001,2023-10-31_11h33.24.079,Oddball_task,2022.2.5,60.18353570676566,
standard,soundFiles/1000Hz_-3dBFS_3s_44.1kHz.wav',None,1000,2,3,11,2,,,,,62.69048499997007,63.69058929994935,63.69128890000284,,65.69065839995164,67.92387409997173,5.2340278006316305,None,1,,,001,2023-10-31_11h33.24.079,Oddball_task,2022.2.5,60.18353570676566,
standard,soundFiles/1000Hz_-3dBFS_3s_44.1kHz.wav',None,1000,3,0,12,0,,,,,67.92387409997173,68.92432859999826,68.92493949995841,,70.92402099998435,70.49117489997298,2.5525366086592007,None,1,,,001,2023-10-31_11h33.24.079,Oddball_task,2022.2.5,60.18353570676566,
standard,soundFiles/1000Hz_-3dBFS_3s_44.1kHz.wav',None,1000,3,1,13,1,,,,,70.92402099998435,71.92390569997951,71.92474399998318,,73.9239768999978,75.4909918999765,4.558217559742067,None,1,,,001,2023-10-31_11h33.24.079,Oddball_task,2022.2.5,60.18353570676566,
standard,soundFiles/1000Hz_-3dBFS_3s_44.1kHz.wav',None,1000,3,2,14,2,,,,,75.4909918999765,76.49048029998085,76.49130819996353,,78.49205989995971,80.24149059999036,4.735301864817616,None,1,,,001,2023-10-31_11h33.24.079,Oddball_task,2022.2.5,60.18353570676566,
target,soundFiles/1200Hz_-3dBFS_3s_44.1kHz.wav',t,2000,3,3,15,3,,,,,80.24149059999036,81.24123579997104,81.24002120000077,,83.24187599995639,83.77458219998516,3.5199590168574537,t,1,0.6035018999828026,,001,2023-10-31_11h33.24.079,Oddball_task,2022.2.5,60.18353570676566,
target,soundFiles/1200Hz_-3dBFS_3s_44.1kHz.wav',t,2000,4,0,16,3,,,,,83.77458219998516,84.77510519995121,84.77476889997487,,86.77439029997913,86.89148160000332,3.102464269903081,t,1,0.6462177999783307,,001,2023-10-31_11h33.24.079,Oddball_task,2022.2.5,60.18353570676566,
standard,soundFiles/1000Hz_-3dBFS_3s_44.1kHz.wav',None,1000,4,1,17,1,,,,,86.89148160000332,87.89152409997769,87.89071380000095,,89.89085529994918,90.69085809995886,3.8007916850926,None,1,,,001,2023-10-31_11h33.24.079,Oddball_task,2022.2.5,60.18353570676566,
standard,soundFiles/1000Hz_-3dBFS_3s_44.1kHz.wav',None,1000,4,2,18,2,,,,,90.69085809995886,91.69215969997458,91.69152449999237,,93.70757659996161,95.39171679998981,4.685404733125158,None,1,,,001,2023-10-31_11h33.24.079,Oddball_task,2022.2.5,60.18353570676566,
standard,soundFiles/1000Hz_-3dBFS_3s_44.1kHz.wav',None,1000,4,3,19,0,,,,,95.39171679998981,96.39163059997372,96.3910891000065,,98.39101639995351,98.19127229996957,2.78482898484316,None,1,,,001,2023-10-31_11h33.24.079,Oddball_task,2022.2.5,60.18353570676566,
standard,soundFiles/1000Hz_-3dBFS_3s_44.1kHz.wav',None,1000,5,0,20,2,,,,,98.39101639995351,99.3934036999708,99.39152719996636,,101.4079192999634,102.39177879999625,3.99140560126445,None,1,,,001,2023-10-31_11h33.24.079,Oddball_task,2022.2.5,60.18353570676566,
standard,soundFiles/1000Hz_-3dBFS_3s_44.1kHz.wav',None,1000,5,1,21,0,,,,,102.39177879999625,103.39107869996224,103.39103259998373,,105.39084199996432,108.02429649996338,5.619170337248491,None,1,,,001,2023-10-31_11h33.24.079,Oddball_task,2022.2.5,60.18353570676566,
target,soundFiles/1200Hz_-3dBFS_3s_44.1kHz.wav',t,2000,5,2,22,3,,,,,108.02429649996338,109.02653509995434,109.02500499996822,,111.04172609996749,110.97446209995542,2.9498889663083916,t,1,0.7714886000030674,,001,2023-10-31_11h33.24.079,Oddball_task,2022.2.5,60.18353570676566,
standard,soundFiles/1000Hz_-3dBFS_3s_44.1kHz.wav',None,1000,5,3,23,1,,,,,111.04172609996749,112.04238759999862,112.04209719996433,,114.0578938999679,114.0089500999893,2.9625942048659497,None,1,,,001,2023-10-31_11h33.24.079,Oddball_task,2022.2.5,60.18353570676566,
standard,soundFiles/1000Hz_-3dBFS_3s_44.1kHz.wav',None,1000,6,0,24,0,,,,,114.0578938999679,115.05804559995886,115.05918859995435,,117.05817479995312,119.97488369996427,5.902789693356926,None,1,,,001,2023-10-31_11h33.24.079,Oddball_task,2022.2.5,60.18353570676566,
standard,soundFiles/1000Hz_-3dBFS_3s_44.1kHz.wav',None,1000,6,1,25,2,,,,,119.97488369996427,120.97516569995787,120.97449560000095,,122.97468980000122,125.65852739999536,5.670703193158687,None,1,,,001,2023-10-31_11h33.24.079,Oddball_task,2022.2.5,60.18353570676566,
standard,soundFiles/1000Hz_-3dBFS_3s_44.1kHz.wav',None,1000,6,2,26,1,,,,,125.65852739999536,126.65848609997192,126.65940959998406,,128.65824999997858,129.7418844999629,4.071666762058814,None,1,,,001,2023-10-31_11h33.24.079,Oddball_task,2022.2.5,60.18353570676566,
target,soundFiles/1200Hz_-3dBFS_3s_44.1kHz.wav',t,2000,6,3,27,3,,,,,129.7418844999629,130.7415822999901,130.74116299996385,,132.74262390000513,134.24161859997548,4.496144283079014,t,1,0.7764935999875888,,001,2023-10-31_11h33.24.079,Oddball_task,2022.2.5,60.18353570676566,
standard,soundFiles/1000Hz_-3dBFS_3s_44.1kHz.wav',None,1000,7,0,28,1,,,,,134.24161859997548,135.2413072999916,135.24150919998064,,137.24147979996633,139.42499009997118,5.182868680097993,None,1,,,001,2023-10-31_11h33.24.079,Oddball_task,2022.2.5,60.18353570676566,
target,soundFiles/1200Hz_-3dBFS_3s_44.1kHz.wav',t,2000,7,1,29,3,,,,,139.42499009997118,140.40914269996574,140.40906189995584,,142.42435089999344,142.47450789995492,3.0408631151513674,t,1,0.9493253999971785,,001,2023-10-31_11h33.24.079,Oddball_task,2022.2.5,60.18353570676566,
standard,soundFiles/1000Hz_-3dBFS_3s_44.1kHz.wav',None,1000,7,2,30,2,,,,,142.47450789995492,143.47514090000186,143.47512270000297,,145.47485299996333,146.05796069995267,3.574147750209288,None,1,,,001,2023-10-31_11h33.24.079,Oddball_task,2022.2.5,60.18353570676566,
standard,soundFiles/1000Hz_-3dBFS_3s_44.1kHz.wav',None,1000,7,3,31,0,,,,,146.05796069995267,147.05786149995402,147.0589577000006,,149.05820839997614,148.5920723999734,2.5242501805534032,None,1,,,001,2023-10-31_11h33.24.079,Oddball_task,2022.2.5,60.18353570676566,
,,,,,,,,,,,,149.05820839997614,150.05874079995556,150.05829029998276,,,,,,,,,,,,,,
