trial,file,corrAns,tone,trials_2.thisRepN,trials_2.thisTrialN,trials_2.thisN,trials_2.thisIndex,instructions.started,key_resp_1.started,key_resp_1.keys,key_resp_1.rt,fixation_cross.started,response.started,sound_1.started,fixation_cross.stopped,response.stopped,FixDur,response.keys,response.corr,response.rt,sound_1.stopped,thank_you.started,thank_you.stopped,exit_exp.started,participant,session,date,expName,psychopyVersion,frameRate,
,,,,,,,,13.555362800005241,13.555362800005241,space,39.97919910000928,,,,,,,,,,,,,,,001,2023-11-08_14h00.16.129,Oddball_task,2022.2.5,59.9136404766703,
standard,soundFiles/1000Hz_-3dBFS_3s_44.1kHz.wav',None,1000,0,0,0,0,,,,,53.569653800004744,54.55283159999817,54.5529475400006,55.63686559999769,56.553954799994244,2.06365910521829,None,1,,,,,,,001,2023-11-08_14h00.16.129,Oddball_task,2022.2.5,59.9136404766703,
standard,soundFiles/1000Hz_-3dBFS_3s_44.1kHz.wav',None,1000,0,1,1,1,,,,,56.553954799994244,57.55381159999524,57.553832840004176,61.21939840000414,59.552854099994875,4.663140455986188,None,1,,,,,,,001,2023-11-08_14h00.16.129,Oddball_task,2022.2.5,59.9136404766703,
target,soundFiles/1200Hz_-3dBFS_3s_44.1kHz.wav',t,2000,0,2,2,3,,,,,61.21939840000414,62.21956559999671,62.22007574000308,63.93655480000598,64.21907540000393,2.7099133389095584,t,1,0.5071683999995003,,,,,,001,2023-11-08_14h00.16.129,Oddball_task,2022.2.5,59.9136404766703,
standard,soundFiles/1000Hz_-3dBFS_3s_44.1kHz.wav',None,1000,0,3,3,2,,,,,64.21907540000393,65.20461810000415,65.20504073999909,66.83699440000055,67.21947609999916,2.6154507063400767,None,1,,,,,,,001,2023-11-08_14h00.16.129,Oddball_task,2022.2.5,59.9136404766703,
standard,soundFiles/1000Hz_-3dBFS_3s_44.1kHz.wav',None,1000,1,0,4,1,,,,,67.21947609999916,68.21980809999513,68.21919294000399,71.3706336000032,70.21942660000059,4.148400392360008,None,1,,,,,,,001,2023-11-08_14h00.16.129,Oddball_task,2022.2.5,59.9136404766703,
standard,soundFiles/1000Hz_-3dBFS_3s_44.1kHz.wav',None,1000,1,1,5,0,,,,,71.3706336000032,72.37040499999421,72.3697531400001,75.67069680000714,74.36958579999919,4.291115355966813,None,1,,,,,,,001,2023-11-08_14h00.16.129,Oddball_task,2022.2.5,59.9136404766703,
target,soundFiles/1200Hz_-3dBFS_3s_44.1kHz.wav',t,2000,1,2,6,3,,,,,75.67069680000714,76.66958289999457,76.66975443999836,80.30311639999854,78.67065739999816,4.625283780331837,t,1,0.664095999993151,,,,,,001,2023-11-08_14h00.16.129,Oddball_task,2022.2.5,59.9136404766703,
standard,soundFiles/1000Hz_-3dBFS_3s_44.1kHz.wav',None,1000,1,3,7,2,,,,,80.30311639999854,81.30326109999442,81.30380654000764,83.50295920000644,83.3035746999958,3.1961528440493296,None,1,,,,,,,001,2023-11-08_14h00.16.129,Oddball_task,2022.2.5,59.9136404766703,
target,soundFiles/1200Hz_-3dBFS_3s_44.1kHz.wav',t,2000,2,0,8,3,,,,,83.50295920000644,84.5029835000023,84.50282764000148,87.71964049999951,86.50296130000788,4.216092246862148,t,1,0.695079800003441,,,,,,001,2023-11-08_14h00.16.129,Oddball_task,2022.2.5,59.9136404766703,
standard,soundFiles/1000Hz_-3dBFS_3s_44.1kHz.wav',None,1000,2,1,9,2,,,,,87.71964049999951,88.72081949999847,88.72054143999848,91.0033803999977,90.73617570000351,3.27520461113496,None,1,,,,,,,001,2023-11-08_14h00.16.129,Oddball_task,2022.2.5,59.9136404766703,
standard,soundFiles/1000Hz_-3dBFS_3s_44.1kHz.wav',None,1000,2,2,10,1,,,,,91.0033803999977,92.00300579999748,92.00328223999968,93.95333550000214,94.00271450000582,2.9393522704014488,None,1,,,,,,,001,2023-11-08_14h00.16.129,Oddball_task,2022.2.5,59.9136404766703,
standard,soundFiles/1000Hz_-3dBFS_3s_44.1kHz.wav',None,1000,2,3,11,0,,,,,94.00271450000582,95.00314010000147,95.00297864000167,96.28718850000587,97.00213890000305,2.27273343694941,None,1,,,,,,,001,2023-11-08_14h00.16.129,Oddball_task,2022.2.5,59.9136404766703,
target,soundFiles/1200Hz_-3dBFS_3s_44.1kHz.wav',t,2000,3,0,12,3,,,,,97.00213890000305,98.00271620000422,98.0020255400057,101.68694909999613,100.00248239999928,4.6821989102021195,t,1,0.5866972000076203,,,,,,001,2023-11-08_14h00.16.129,Oddball_task,2022.2.5,59.9136404766703,
standard,soundFiles/1000Hz_-3dBFS_3s_44.1kHz.wav',None,1000,3,1,13,1,,,,,101.68694909999613,102.68633850000333,102.68684224000462,104.31916490000731,104.6859875999944,2.6177924163503974,None,1,,,,,,,001,2023-11-08_14h00.16.129,Oddball_task,2022.2.5,59.9136404766703,
standard,soundFiles/1000Hz_-3dBFS_3s_44.1kHz.wav',None,1000,3,2,14,0,,,,,104.6859875999944,105.68593000000692,105.68613304000318,106.97012929999619,107.68604460000643,2.2736615103941915,None,1,,,,,,,001,2023-11-08_14h00.16.129,Oddball_task,2022.2.5,59.9136404766703,
standard,soundFiles/1000Hz_-3dBFS_3s_44.1kHz.wav',None,1000,3,3,15,2,,,,,107.68604460000643,108.68602100000135,108.68611354000022,110.63593420000689,110.68622689999756,2.9505568904812387,None,1,,109.68691950000357,,,,,001,2023-11-08_14h00.16.129,Oddball_task,2022.2.5,59.9136404766703,
standard,soundFiles/1000Hz_-3dBFS_3s_44.1kHz.wav',None,1000,4,0,16,0,,,,,110.68622689999756,111.68587889999617,111.6859790399947,114.10253370000282,113.68717279999692,3.4118300917166042,None,1,,,,,,,001,2023-11-08_14h00.16.129,Oddball_task,2022.2.5,59.9136404766703,
standard,soundFiles/1000Hz_-3dBFS_3s_44.1kHz.wav',None,1000,4,1,17,2,,,,,114.10253370000282,115.08756460000586,115.08688373999466,117.78741330000048,117.08695880000596,3.67719066509388,None,1,,116.08623939999961,,,,,001,2023-11-08_14h00.16.129,Oddball_task,2022.2.5,59.9136404766703,
target,soundFiles/1200Hz_-3dBFS_3s_44.1kHz.wav',t,2000,4,2,18,3,,,,,117.78741330000048,118.78589949999878,118.7857127399955,120.13618250000582,120.7871090999979,2.333777957793343,t,1,0.964637600001879,,,,,,001,2023-11-08_14h00.16.129,Oddball_task,2022.2.5,59.9136404766703,
standard,soundFiles/1000Hz_-3dBFS_3s_44.1kHz.wav',None,1000,4,3,19,1,,,,,120.7871090999979,121.78635379999469,121.78570804000337,125.78687640000135,123.78623990000051,4.986448292346008,None,1,,,,,,,001,2023-11-08_14h00.16.129,Oddball_task,2022.2.5,59.9136404766703,
standard,soundFiles/1000Hz_-3dBFS_3s_44.1kHz.wav',None,1000,5,0,20,2,,,,,125.78687640000135,126.78638499999943,126.78590514000534,128.8365999999951,128.78610379999736,3.04513017069966,None,1,,,,,,,001,2023-11-08_14h00.16.129,Oddball_task,2022.2.5,59.9136404766703,
target,soundFiles/1200Hz_-3dBFS_3s_44.1kHz.wav',t,2000,5,1,21,3,,,,,128.8365999999951,129.82036840000364,129.81997673999723,131.0198742000066,131.82045389999985,2.1734498101043447,t,1,0.49723909999011084,130.8202561000071,,,,,001,2023-11-08_14h00.16.129,Oddball_task,2022.2.5,59.9136404766703,
standard,soundFiles/1000Hz_-3dBFS_3s_44.1kHz.wav',None,1000,5,2,22,0,,,,,131.82045389999985,132.8041521999985,132.80391403999676,135.13597930000105,134.8193472999992,3.31640871066236,None,1,,133.80293700000038,,,,,001,2023-11-08_14h00.16.129,Oddball_task,2022.2.5,59.9136404766703,
standard,soundFiles/1000Hz_-3dBFS_3s_44.1kHz.wav',None,1000,5,3,23,1,,,,,135.13597930000105,136.12023470000713,136.12053944000655,139.35329680000723,138.1193540999957,4.204437385008411,None,1,,,,,,,001,2023-11-08_14h00.16.129,Oddball_task,2022.2.5,59.9136404766703,
target,soundFiles/1200Hz_-3dBFS_3s_44.1kHz.wav',t,2000,6,0,24,3,,,,,139.35329680000723,140.35283600000548,140.35287114000386,142.52059200000076,142.35278470000776,3.161156926515811,t,1,0.460498499989626,,,,,,001,2023-11-08_14h00.16.129,Oddball_task,2022.2.5,59.9136404766703,
standard,soundFiles/1000Hz_-3dBFS_3s_44.1kHz.wav',None,1000,6,1,25,0,,,,,142.52059200000076,143.51961329999904,143.51960984000908,146.3202706000011,145.51942589999817,3.7881310085681665,None,1,,144.51979469999787,,,,,001,2023-11-08_14h00.16.129,Oddball_task,2022.2.5,59.9136404766703,
standard,soundFiles/1000Hz_-3dBFS_3s_44.1kHz.wav',None,1000,6,2,26,1,,,,,146.3202706000011,147.31930380000267,147.3196645400065,149.08728940000583,149.31942450000497,2.7527917989464674,None,1,,,,,,,001,2023-11-08_14h00.16.129,Oddball_task,2022.2.5,59.9136404766703,
standard,soundFiles/1000Hz_-3dBFS_3s_44.1kHz.wav',None,1000,6,3,27,2,,,,,149.31942450000497,150.3198010000051,150.31969244000067,153.37119900000107,152.31961570000567,4.040180750891979,None,1,,,,,,,001,2023-11-08_14h00.16.129,Oddball_task,2022.2.5,59.9136404766703,
standard,soundFiles/1000Hz_-3dBFS_3s_44.1kHz.wav',None,1000,7,0,28,1,,,,,153.37119900000107,154.36980739999854,154.36946104000236,155.48659139999654,156.36897959999624,2.1034143499505875,None,1,,,,,,,001,2023-11-08_14h00.16.129,Oddball_task,2022.2.5,59.9136404766703,
standard,soundFiles/1000Hz_-3dBFS_3s_44.1kHz.wav',None,1000,7,1,29,2,,,,,156.36897959999624,157.35347770000226,157.35401364000137,158.78602440000395,159.35236889999942,2.4154719641982743,None,1,,,,,,,001,2023-11-08_14h00.16.129,Oddball_task,2022.2.5,59.9136404766703,
target,soundFiles/1200Hz_-3dBFS_3s_44.1kHz.wav',t,2000,7,2,30,3,,,,,159.35236889999942,160.33818180000526,160.3372488399953,163.38621130000683,162.3583748999954,4.028931467034817,t,1,0.5633539999980712,161.336066200005,,,,,001,2023-11-08_14h00.16.129,Oddball_task,2022.2.5,59.9136404766703,
standard,soundFiles/1000Hz_-3dBFS_3s_44.1kHz.wav',None,1000,7,3,31,0,,,,,163.38621130000683,164.38703909999458,164.38717304000312,165.73615229999996,166.40289219999977,2.336555176621146,None,1,,,,,,,001,2023-11-08_14h00.16.129,Oddball_task,2022.2.5,59.9136404766703,
standard,soundFiles/1000Hz_-3dBFS_3s_44.1kHz.wav',None,1000,8,0,32,2,,,,,166.40289219999977,167.4029187999986,167.4028349400076,169.02066340000601,169.40356380000594,2.614635204648048,None,1,,,,,,,001,2023-11-08_14h00.16.129,Oddball_task,2022.2.5,59.9136404766703,
standard,soundFiles/1000Hz_-3dBFS_3s_44.1kHz.wav',None,1000,8,1,33,1,,,,,169.40356380000594,170.40222489999724,170.40249133999606,172.5360978999961,172.40261920000194,3.1177198310801546,None,1,,,,,,,001,2023-11-08_14h00.16.129,Oddball_task,2022.2.5,59.9136404766703,
target,soundFiles/1200Hz_-3dBFS_3s_44.1kHz.wav',t,2000,8,2,34,3,,,,,172.5360978999961,173.53606610000134,173.53598653999944,176.538129499997,175.5362516000023,3.990051072064677,t,1,0.7174830000003567,,,,,,001,2023-11-08_14h00.16.129,Oddball_task,2022.2.5,59.9136404766703,
standard,soundFiles/1000Hz_-3dBFS_3s_44.1kHz.wav',None,1000,8,3,35,0,,,,,176.538129499997,177.5356832999969,177.536396240005,178.78645319999487,179.5363345000078,2.2331670547612434,None,1,,,,,,,001,2023-11-08_14h00.16.129,Oddball_task,2022.2.5,59.9136404766703,
standard,soundFiles/1000Hz_-3dBFS_3s_44.1kHz.wav',None,1000,9,0,36,0,,,,,179.5363345000078,180.5206435,180.51987684000488,183.42068090000248,182.53630479999993,3.8770694093098443,None,1,,,,,,,001,2023-11-08_14h00.16.129,Oddball_task,2022.2.5,59.9136404766703,
standard,soundFiles/1000Hz_-3dBFS_3s_44.1kHz.wav',None,1000,9,1,37,2,,,,,183.42068090000248,184.41902539999865,184.41962544000563,187.30314220000582,186.42039800000202,3.8763628144058337,None,1,,,,,,,001,2023-11-08_14h00.16.129,Oddball_task,2022.2.5,59.9136404766703,
standard,soundFiles/1000Hz_-3dBFS_3s_44.1kHz.wav',None,1000,9,2,38,1,,,,,187.30314220000582,188.30274509999435,188.30446594000824,191.60432080000464,190.3028661999997,4.299571342379419,None,1,,,,,,,001,2023-11-08_14h00.16.129,Oddball_task,2022.2.5,59.9136404766703,
target,soundFiles/1200Hz_-3dBFS_3s_44.1kHz.wav',t,2000,9,3,39,3,,,,,191.60432080000464,192.60298009999678,192.60319293999493,195.70224400000006,194.60266679999768,4.0971976917266675,t,1,0.5310921000054805,,,,,,001,2023-11-08_14h00.16.129,Oddball_task,2022.2.5,59.9136404766703,
standard,soundFiles/1000Hz_-3dBFS_3s_44.1kHz.wav',None,1000,10,0,40,2,,,,,195.70224400000006,196.7035762000014,196.70252444000363,199.12025670000003,198.703577399996,3.4049001834434978,None,1,,,,,,,001,2023-11-08_14h00.16.129,Oddball_task,2022.2.5,59.9136404766703,
standard,soundFiles/1000Hz_-3dBFS_3s_44.1kHz.wav',None,1000,10,1,41,0,,,,,199.12025670000003,200.11958919999597,200.11978384000105,201.73667410000053,202.1196299000003,2.6104283593113107,None,1,,,,,,,001,2023-11-08_14h00.16.129,Oddball_task,2022.2.5,59.9136404766703,
standard,soundFiles/1000Hz_-3dBFS_3s_44.1kHz.wav',None,1000,10,2,42,1,,,,,202.1196299000003,203.11943109999993,203.11960153999536,205.41971950000152,205.11958779999986,3.2880687764285934,None,1,,,,,,,001,2023-11-08_14h00.16.129,Oddball_task,2022.2.5,59.9136404766703,
target,soundFiles/1200Hz_-3dBFS_3s_44.1kHz.wav',t,2000,10,3,43,3,,,,,205.41971950000152,206.4035148999974,206.403778540004,208.35788130000583,208.44209460000275,2.913309356473473,t,1,0.5058470999938436,,,,,,001,2023-11-08_14h00.16.129,Oddball_task,2022.2.5,59.9136404766703,
standard,soundFiles/1000Hz_-3dBFS_3s_44.1kHz.wav',None,1000,11,0,44,0,,,,,208.44209460000275,209.402751600006,209.4028824400055,211.62106259999564,211.40584190000664,3.174970219781099,None,1,,,,,,,001,2023-11-08_14h00.16.129,Oddball_task,2022.2.5,59.9136404766703,
target,soundFiles/1200Hz_-3dBFS_3s_44.1kHz.wav',t,2000,11,1,45,3,,,,,211.62106259999564,212.62011750000238,212.61950684000186,215.92011200000707,214.61925580000388,4.30082723324396,t,1,0.50550210000074,,,,,,001,2023-11-08_14h00.16.129,Oddball_task,2022.2.5,59.9136404766703,
standard,soundFiles/1000Hz_-3dBFS_3s_44.1kHz.wav',None,1000,11,2,46,2,,,,,215.92011200000707,216.9199174999958,216.919160440001,220.28732459999446,218.92007989999547,4.360235663290471,None,1,,,,,,,001,2023-11-08_14h00.16.129,Oddball_task,2022.2.5,59.9136404766703,
standard,soundFiles/1000Hz_-3dBFS_3s_44.1kHz.wav',None,1000,11,3,47,1,,,,,220.28732459999446,221.28754180000396,221.28681943999692,224.0530282999971,223.2867671999993,3.751149184768659,None,1,,,,,,,001,2023-11-08_14h00.16.129,Oddball_task,2022.2.5,59.9136404766703,
standard,soundFiles/1000Hz_-3dBFS_3s_44.1kHz.wav',None,1000,12,0,48,0,,,,,224.0530282999971,225.05303290000302,225.05280084000407,228.45242469999357,227.05265100000543,4.386899429692276,None,1,,,,,,,001,2023-11-08_14h00.16.129,Oddball_task,2022.2.5,59.9136404766703,
target,soundFiles/1200Hz_-3dBFS_3s_44.1kHz.wav',t,2000,12,1,49,3,,,,,228.45242469999357,229.4359945000033,229.43627074000398,233.06870289999642,231.43589979999524,4.613956406141675,t,1,0.5382836999924621,,,,,,001,2023-11-08_14h00.16.129,Oddball_task,2022.2.5,59.9136404766703,
standard,soundFiles/1000Hz_-3dBFS_3s_44.1kHz.wav',None,1000,12,2,50,1,,,,,233.06870289999642,234.05263269999705,234.0526831399955,235.46893469999486,236.05345439999655,2.3904667902707786,None,1,,,,,,,001,2023-11-08_14h00.16.129,Oddball_task,2022.2.5,59.9136404766703,
standard,soundFiles/1000Hz_-3dBFS_3s_44.1kHz.wav',None,1000,12,3,51,2,,,,,236.05345439999655,237.0526172999962,237.0526231400043,238.5362324000016,239.05287359999784,2.4756827717856504,None,1,,,,,,,001,2023-11-08_14h00.16.129,Oddball_task,2022.2.5,59.9136404766703,
standard,soundFiles/1000Hz_-3dBFS_3s_44.1kHz.wav',None,1000,13,0,52,0,,,,,239.05287359999784,240.03847290000704,240.03722384000577,242.08630229999835,242.0535913000058,3.0205593404731204,None,1,,,,,,,001,2023-11-08_14h00.16.129,Oddball_task,2022.2.5,59.9136404766703,
standard,soundFiles/1000Hz_-3dBFS_3s_44.1kHz.wav',None,1000,13,1,53,1,,,,,242.08630229999835,243.08597319999535,243.08599434000354,246.31928389999666,245.08576060000632,4.221292025224353,None,1,,244.08638969999447,,,,,001,2023-11-08_14h00.16.129,Oddball_task,2022.2.5,59.9136404766703,
target,soundFiles/1200Hz_-3dBFS_3s_44.1kHz.wav',t,2000,13,2,54,3,,,,,246.31928389999666,247.30507699999725,247.3049884399996,249.01955019999878,249.31958359999408,2.6866947562105032,t,1,0.46076619999075774,,,,,,001,2023-11-08_14h00.16.129,Oddball_task,2022.2.5,59.9136404766703,
standard,soundFiles/1000Hz_-3dBFS_3s_44.1kHz.wav',None,1000,13,3,55,2,,,,,249.31958359999408,250.30344800000603,250.30345563999873,252.2698151000077,252.3031256999966,2.9456485431373807,None,1,,,,,,,001,2023-11-08_14h00.16.129,Oddball_task,2022.2.5,59.9136404766703,
standard,soundFiles/1000Hz_-3dBFS_3s_44.1kHz.wav',None,1000,14,0,56,0,,,,,252.3031256999966,253.30266090000805,253.30300803999563,255.8357837000076,255.30251249999856,3.532142952226897,None,1,,,,,,,001,2023-11-08_14h00.16.129,Oddball_task,2022.2.5,59.9136404766703,
standard,soundFiles/1000Hz_-3dBFS_3s_44.1kHz.wav',None,1000,14,1,57,2,,,,,255.8357837000076,256.83573780000734,256.8361562399994,257.9525710000016,258.83703850000165,2.1025634384936756,None,1,,,,,,,001,2023-11-08_14h00.16.129,Oddball_task,2022.2.5,59.9136404766703,
standard,soundFiles/1000Hz_-3dBFS_3s_44.1kHz.wav',None,1000,14,2,58,1,,,,,258.83703850000165,259.83688849999453,259.8359495399971,263.0863127000048,261.8362974000047,4.238560042029198,None,1,,,,,,,001,2023-11-08_14h00.16.129,Oddball_task,2022.2.5,59.9136404766703,
target,soundFiles/1200Hz_-3dBFS_3s_44.1kHz.wav',t,2000,14,3,59,3,,,,,263.0863127000048,264.0867034999974,264.0861960399969,266.43586690000666,266.0866651999968,3.337203190441409,t,1,0.5024807999870973,265.08628849999513,,,,,001,2023-11-08_14h00.16.129,Oddball_task,2022.2.5,59.9136404766703,
standard,soundFiles/1000Hz_-3dBFS_3s_44.1kHz.wav',None,1000,15,0,60,1,,,,,266.43586690000666,267.4355215999967,267.43546163999855,268.91888919999474,269.4354683999991,2.4728110543697737,None,1,,,,,,,001,2023-11-08_14h00.16.129,Oddball_task,2022.2.5,59.9136404766703,
standard,soundFiles/1000Hz_-3dBFS_3s_44.1kHz.wav',None,1000,15,1,61,2,,,,,269.4354683999991,270.42012290000275,270.4188835400026,271.8195607999951,272.4190533999936,2.3727936769069595,None,1,,,,,,,001,2023-11-08_14h00.16.129,Oddball_task,2022.2.5,59.9136404766703,
target,soundFiles/1200Hz_-3dBFS_3s_44.1kHz.wav',t,2000,15,2,62,3,,,,,272.4190533999936,273.40340140000626,273.4034906400091,274.7194743,275.4038317999948,2.293603992172322,t,1,0.4982305000012275,,,,,,001,2023-11-08_14h00.16.129,Oddball_task,2022.2.5,59.9136404766703,
standard,soundFiles/1000Hz_-3dBFS_3s_44.1kHz.wav',None,1000,15,3,63,0,,,,,275.4038317999948,276.4025918999978,276.40255684000005,278.1864226000034,278.40225509999436,2.769514107329353,None,1,,277.4038586999959,,,,,001,2023-11-08_14h00.16.129,Oddball_task,2022.2.5,59.9136404766703,
standard,soundFiles/1000Hz_-3dBFS_3s_44.1kHz.wav',None,1000,16,0,64,0,,,,,278.40225509999436,279.38661349999893,279.38671644000425,281.1536671000067,281.387828100007,2.7522723443033934,None,1,,,,,,,001,2023-11-08_14h00.16.129,Oddball_task,2022.2.5,59.9136404766703,
target,soundFiles/1200Hz_-3dBFS_3s_44.1kHz.wav',t,2000,16,1,65,3,,,,,281.387828100007,282.3855545999977,282.3855354400046,284.72000050000497,284.3888166999968,3.3221513720042024,t,1,0.4923331999889342,283.385921699999,,,,,001,2023-11-08_14h00.16.129,Oddball_task,2022.2.5,59.9136404766703,
standard,soundFiles/1000Hz_-3dBFS_3s_44.1kHz.wav',None,1000,16,2,66,2,,,,,284.72000050000497,285.71890079999866,285.7194457400081,288.7690528999956,287.719107500001,4.036308788648897,None,1,,,,,,,001,2023-11-08_14h00.16.129,Oddball_task,2022.2.5,59.9136404766703,
standard,soundFiles/1000Hz_-3dBFS_3s_44.1kHz.wav',None,1000,16,3,67,1,,,,,288.7690528999956,289.7528197000065,289.753509039995,291.5056915000023,291.77077499999723,2.735251674817989,None,1,,,,,,,001,2023-11-08_14h00.16.129,Oddball_task,2022.2.5,59.9136404766703,
standard,soundFiles/1000Hz_-3dBFS_3s_44.1kHz.wav',None,1000,17,0,68,2,,,,,291.77077499999723,292.75205599999754,292.7526705399985,294.75378129999444,294.75378129999444,2.9742351613109497,None,1,,,,,,,001,2023-11-08_14h00.16.129,Oddball_task,2022.2.5,59.9136404766703,
standard,soundFiles/1000Hz_-3dBFS_3s_44.1kHz.wav',None,1000,17,1,69,0,,,,,294.75378129999444,295.75213670000085,295.7525976399964,298.1534599000006,297.7525294000079,3.400604643760539,None,1,,,,,,,001,2023-11-08_14h00.16.129,Oddball_task,2022.2.5,59.9136404766703,
target,soundFiles/1200Hz_-3dBFS_3s_44.1kHz.wav',t,2000,17,2,70,3,,,,,298.1534599000006,299.15290889999596,299.15360834000313,301.15475709999737,301.15475709999737,2.9951632891732154,t,1,0.6771251000027405,,,,,,001,2023-11-08_14h00.16.129,Oddball_task,2022.2.5,59.9136404766703,
standard,soundFiles/1000Hz_-3dBFS_3s_44.1kHz.wav',None,1000,17,3,71,1,,,,,301.15475709999737,302.15287890000036,302.15270333999507,304.85311589999765,304.1525219000032,3.6930029305156613,None,1,,,,,,,001,2023-11-08_14h00.16.129,Oddball_task,2022.2.5,59.9136404766703,
standard,soundFiles/1000Hz_-3dBFS_3s_44.1kHz.wav',None,1000,18,0,72,2,,,,,304.85311589999765,305.8516605000041,305.8524537399979,306.93517739999515,307.8523905000038,2.081649517220698,None,1,,,,,,,001,2023-11-08_14h00.16.129,Oddball_task,2022.2.5,59.9136404766703,
standard,soundFiles/1000Hz_-3dBFS_3s_44.1kHz.wav',None,1000,18,1,73,0,,,,,307.8523905000038,308.83754439999757,308.8367606400032,310.6698172000033,310.83668969999417,2.809107241027676,None,1,,,,,,,001,2023-11-08_14h00.16.129,Oddball_task,2022.2.5,59.9136404766703,
target,soundFiles/1200Hz_-3dBFS_3s_44.1kHz.wav',t,2000,18,2,74,3,,,,,310.83668969999417,311.83584189999965,311.83746624000634,313.6202087999991,313.8357813000039,2.777962033274333,t,1,0.47403009999834467,,,,,,001,2023-11-08_14h00.16.129,Oddball_task,2022.2.5,59.9136404766703,
standard,soundFiles/1000Hz_-3dBFS_3s_44.1kHz.wav',None,1000,18,3,75,1,,,,,313.8357813000039,314.8368527999992,314.8365316400057,316.8533987999981,316.83687709999504,3.007188311755997,None,1,,315.8365475000028,,,,,001,2023-11-08_14h00.16.129,Oddball_task,2022.2.5,59.9136404766703,
target,soundFiles/1200Hz_-3dBFS_3s_44.1kHz.wav',t,2000,19,0,76,3,,,,,316.8533987999981,317.852318499994,317.85336184000045,320.3702125999989,319.85367029999907,3.5029459825880767,t,1,0.5130083999974886,,,,,,001,2023-11-08_14h00.16.129,Oddball_task,2022.2.5,59.9136404766703,
standard,soundFiles/1000Hz_-3dBFS_3s_44.1kHz.wav',None,1000,19,1,77,2,,,,,320.3702125999989,321.36982000000717,321.3697585399976,325.1197600000014,323.3693007999973,4.741761643194318,None,1,,322.3693653999944,,,,,001,2023-11-08_14h00.16.129,Oddball_task,2022.2.5,59.9136404766703,
standard,soundFiles/1000Hz_-3dBFS_3s_44.1kHz.wav',None,1000,19,2,78,1,,,,,325.1197600000014,326.10342359999777,326.10393154000195,328.05202770000324,328.11916960000235,2.9318566328943927,None,1,,,,,,,001,2023-11-08_14h00.16.129,Oddball_task,2022.2.5,59.9136404766703,
standard,soundFiles/1000Hz_-3dBFS_3s_44.1kHz.wav',None,1000,19,3,79,0,,,,,328.11916960000235,329.1028551000054,329.1033176399986,331.92801250000775,331.10247060000256,3.7861537147865993,None,1,,,,,,,001,2023-11-08_14h00.16.129,Oddball_task,2022.2.5,59.9136404766703,
target,soundFiles/1200Hz_-3dBFS_3s_44.1kHz.wav',t,2000,20,0,80,3,,,,,331.92801250000775,332.9036868999974,332.90347424000066,335.0369994000066,334.9076749999949,3.0901867547068673,t,1,0.35828649999166373,,,,,,001,2023-11-08_14h00.16.129,Oddball_task,2022.2.5,59.9136404766703,
standard,soundFiles/1000Hz_-3dBFS_3s_44.1kHz.wav',None,1000,20,1,81,0,,,,,335.0369994000066,336.01975500000117,336.0192401400025,338.9686747999949,338.0188017000037,3.9213897306970797,None,1,,,,,,,001,2023-11-08_14h00.16.129,Oddball_task,2022.2.5,59.9136404766703,
standard,soundFiles/1000Hz_-3dBFS_3s_44.1kHz.wav',None,1000,20,2,82,1,,,,,338.9686747999949,339.9686805999954,339.9692945400064,343.7020745000045,341.9706041000027,4.7263110565768764,None,1,,,,,,,001,2023-11-08_14h00.16.129,Oddball_task,2022.2.5,59.9136404766703,
standard,soundFiles/1000Hz_-3dBFS_3s_44.1kHz.wav',None,1000,20,3,83,2,,,,,343.7020745000045,344.686663600005,344.68663354000165,347.2532276999991,346.68552129999443,3.542112317353398,None,1,,,,,,,001,2023-11-08_14h00.16.129,Oddball_task,2022.2.5,59.9136404766703,
standard,soundFiles/1000Hz_-3dBFS_3s_44.1kHz.wav',None,1000,21,0,84,2,,,,,347.2532276999991,348.2517325999943,348.25217343999685,351.4924686000013,350.2530009000038,4.2082159973465165,None,1,,,,,,,001,2023-11-08_14h00.16.129,Oddball_task,2022.2.5,59.9136404766703,
standard,soundFiles/1000Hz_-3dBFS_3s_44.1kHz.wav',None,1000,21,1,85,0,,,,,351.4924686000013,352.4697243999981,352.4693042400075,355.68578090000665,354.4695864999958,4.183582719243808,None,1,,,,,,,001,2023-11-08_14h00.16.129,Oddball_task,2022.2.5,59.9136404766703,
target,soundFiles/1200Hz_-3dBFS_3s_44.1kHz.wav',t,2000,21,2,86,3,,,,,355.68578090000665,356.6698318999988,356.6703609400036,359.10207269999955,358.66919359999883,3.4016776198342042,t,1,0.4636425000062445,,,,,,001,2023-11-08_14h00.16.129,Oddball_task,2022.2.5,59.9136404766703,
standard,soundFiles/1000Hz_-3dBFS_3s_44.1kHz.wav',None,1000,21,3,87,1,,,,,359.10207269999955,360.1022707999946,360.1022871399953,362.28649129999394,362.1027213000052,3.172081223206918,None,1,,,,,,,001,2023-11-08_14h00.16.129,Oddball_task,2022.2.5,59.9136404766703,
standard,soundFiles/1000Hz_-3dBFS_3s_44.1kHz.wav',None,1000,22,0,88,1,,,,,362.28649129999394,363.2860057000071,363.2863133399995,365.8371683000005,365.28601969999727,3.5488390023316114,None,1,,,,,,,001,2023-11-08_14h00.16.129,Oddball_task,2022.2.5,59.9136404766703,
standard,soundFiles/1000Hz_-3dBFS_3s_44.1kHz.wav',None,1000,22,1,89,2,,,,,365.8371683000005,366.83582350000506,366.83575293999894,368.2191520000051,368.83549500000663,2.377352081971078,None,1,,,,,,,001,2023-11-08_14h00.16.129,Oddball_task,2022.2.5,59.9136404766703,
standard,soundFiles/1000Hz_-3dBFS_3s_44.1kHz.wav',None,1000,22,2,90,0,,,,,368.83549500000663,369.8355819999997,369.83563854000096,373.335395800008,371.83528909999586,4.49253216472735,None,1,,,,,,,001,2023-11-08_14h00.16.129,Oddball_task,2022.2.5,59.9136404766703,
target,soundFiles/1200Hz_-3dBFS_3s_44.1kHz.wav',t,2000,22,3,91,3,,,,,373.335395800008,374.33520610000414,374.3365387400016,378.1693690999964,376.3354241000052,4.825990022037987,t,1,0.48645130000659265,,,,,,001,2023-11-08_14h00.16.129,Oddball_task,2022.2.5,59.9136404766703,
standard,soundFiles/1000Hz_-3dBFS_3s_44.1kHz.wav',None,1000,23,0,92,0,,,,,378.1693690999964,379.1526496000006,379.1533423400004,383.11932030000025,381.15262639999855,4.941878371931763,None,1,,,,,,,001,2023-11-08_14h00.16.129,Oddball_task,2022.2.5,59.9136404766703,
standard,soundFiles/1000Hz_-3dBFS_3s_44.1kHz.wav',None,1000,23,1,93,2,,,,,383.11932030000025,384.1192100000044,384.1192580399991,386.93668129999423,386.1192293000058,3.8102979109679795,None,1,,,,,,,001,2023-11-08_14h00.16.129,Oddball_task,2022.2.5,59.9136404766703,
target,soundFiles/1200Hz_-3dBFS_3s_44.1kHz.wav',t,2000,23,2,94,3,,,,,386.93668129999423,387.93636340000376,387.9354811400015,391.769198199996,389.9355826999963,4.822686069676905,t,1,0.5330129999929341,,,,,,001,2023-11-08_14h00.16.129,Oddball_task,2022.2.5,59.9136404766703,
standard,soundFiles/1000Hz_-3dBFS_3s_44.1kHz.wav',None,1000,23,3,95,1,,,,,391.769198199996,392.76876799999445,392.7687708400088,395.4355174999946,394.7698726999952,3.653072407023141,None,1,,,,,,,001,2023-11-08_14h00.16.129,Oddball_task,2022.2.5,59.9136404766703,
target,soundFiles/1200Hz_-3dBFS_3s_44.1kHz.wav',t,2000,24,0,96,3,,,,,395.4355174999946,396.4192248000036,396.4199827400051,397.6698253000068,398.4187891000038,2.2222617329011847,t,1,0.46630630000436213,,,,,,001,2023-11-08_14h00.16.129,Oddball_task,2022.2.5,59.9136404766703,
standard,soundFiles/1000Hz_-3dBFS_3s_44.1kHz.wav',None,1000,24,1,97,0,,,,,398.4187891000038,399.4191565999936,399.41940093999875,401.3026069000043,401.41836579999654,2.884150241568412,None,1,,,,,,,001,2023-11-08_14h00.16.129,Oddball_task,2022.2.5,59.9136404766703,
standard,soundFiles/1000Hz_-3dBFS_3s_44.1kHz.wav',None,1000,24,2,98,2,,,,,401.41836579999654,402.4188390000054,402.4186639400039,406.2693145999947,404.4412091999984,4.851959367130792,None,1,,,,,,,001,2023-11-08_14h00.16.129,Oddball_task,2022.2.5,59.9136404766703,
standard,soundFiles/1000Hz_-3dBFS_3s_44.1kHz.wav',None,1000,24,3,99,1,,,,,406.2693145999947,407.2688651000062,407.26883223999613,410.98672149999766,409.2699200000061,4.711836702045127,None,1,,408.26986020000186,,,,,001,2023-11-08_14h00.16.129,Oddball_task,2022.2.5,59.9136404766703,
standard,soundFiles/1000Hz_-3dBFS_3s_44.1kHz.wav',None,1000,25,0,100,0,,,,,410.98672149999766,411.9853223999962,411.9861846400061,415.56903630000306,413.98860969999805,4.580451444513995,None,1,,,,,,,001,2023-11-08_14h00.16.129,Oddball_task,2022.2.5,59.9136404766703,
target,soundFiles/1200Hz_-3dBFS_3s_44.1kHz.wav',t,2000,25,1,101,3,,,,,415.56903630000306,416.56902740000805,416.57022774000217,419.6690965000016,418.56916820000333,4.085876706157384,t,1,0.5967478999955347,,,,,,001,2023-11-08_14h00.16.129,Oddball_task,2022.2.5,59.9136404766703,
standard,soundFiles/1000Hz_-3dBFS_3s_44.1kHz.wav',None,1000,25,2,102,1,,,,,419.6690965000016,420.653553199998,420.65445803999756,424.6190731999959,422.66856310000003,4.9444539048149,None,1,,,,,,,001,2023-11-08_14h00.16.129,Oddball_task,2022.2.5,59.9136404766703,
standard,soundFiles/1000Hz_-3dBFS_3s_44.1kHz.wav',None,1000,25,3,103,2,,,,,424.6190731999959,425.61897979999776,425.6191598400081,427.303192899999,427.61957229999825,2.668722877397178,None,1,,,,,,,001,2023-11-08_14h00.16.129,Oddball_task,2022.2.5,59.9136404766703,
standard,soundFiles/1000Hz_-3dBFS_3s_44.1kHz.wav',None,1000,26,0,104,1,,,,,427.61957229999825,428.61893979999877,428.6189386399972,431.28731709999556,430.61934020000626,3.65673456156404,None,1,,,,,,,001,2023-11-08_14h00.16.129,Oddball_task,2022.2.5,59.9136404766703,
target,soundFiles/1200Hz_-3dBFS_3s_44.1kHz.wav',t,2000,26,1,105,3,,,,,431.28731709999556,432.285555800001,432.28554354000227,436.26973780000117,434.2857670999947,4.9748421637378915,t,1,0.42476719999103807,,,,,,001,2023-11-08_14h00.16.129,Oddball_task,2022.2.5,59.9136404766703,
standard,soundFiles/1000Hz_-3dBFS_3s_44.1kHz.wav',None,1000,26,2,106,0,,,,,436.26973780000117,437.2697937000048,437.2700275400028,440.4357311000058,439.26975259999745,4.157718463843919,None,1,,,,,,,001,2023-11-08_14h00.16.129,Oddball_task,2022.2.5,59.9136404766703,
standard,soundFiles/1000Hz_-3dBFS_3s_44.1kHz.wav',None,1000,26,3,107,2,,,,,440.4357311000058,441.43606459999864,441.436330640009,444.6525440999976,443.4361803000065,4.217198754042777,None,1,,,,,,,001,2023-11-08_14h00.16.129,Oddball_task,2022.2.5,59.9136404766703,
standard,soundFiles/1000Hz_-3dBFS_3s_44.1kHz.wav',None,1000,27,0,108,0,,,,,444.6525440999976,445.63610869999684,445.6364890400044,448.13564249999763,447.6358282000001,3.4740047002466232,None,1,,446.63566090000677,,,,,001,2023-11-08_14h00.16.129,Oddball_task,2022.2.5,59.9136404766703,
standard,soundFiles/1000Hz_-3dBFS_3s_44.1kHz.wav',None,1000,27,1,109,1,,,,,448.13564249999763,449.13571709999815,449.13538444000443,451.402198900003,451.1355234999937,3.2573134149722023,None,1,,,,,,,001,2023-11-08_14h00.16.129,Oddball_task,2022.2.5,59.9136404766703,
target,soundFiles/1200Hz_-3dBFS_3s_44.1kHz.wav',t,2000,27,2,110,3,,,,,451.402198900003,452.38631509999686,452.3865357399962,455.10368450000533,454.4024655999965,3.6869365456014296,t,1,0.499889799990342,,,,,,001,2023-11-08_14h00.16.129,Oddball_task,2022.2.5,59.9136404766703,
standard,soundFiles/1000Hz_-3dBFS_3s_44.1kHz.wav',None,1000,27,3,111,2,,,,,455.10368450000533,456.08636630000547,456.08638784000215,459.2858469000057,458.08732540000346,4.173247872131693,None,1,,457.08705929999996,,,,,001,2023-11-08_14h00.16.129,Oddball_task,2022.2.5,59.9136404766703,
standard,soundFiles/1000Hz_-3dBFS_3s_44.1kHz.wav',None,1000,28,0,112,1,,,,,459.2858469000057,460.27022099999886,460.27091743999773,464.25242800000706,462.26983839999593,4.964918759616418,None,1,,,,,,,001,2023-11-08_14h00.16.129,Oddball_task,2022.2.5,59.9136404766703,
target,soundFiles/1200Hz_-3dBFS_3s_44.1kHz.wav',t,2000,28,1,113,3,,,,,464.25242800000706,465.2517135999951,465.2524723400027,467.3350089000014,467.2516869999963,3.0787003859271316,t,1,0.45756559999426827,,,,,,001,2023-11-08_14h00.16.129,Oddball_task,2022.2.5,59.9136404766703,
standard,soundFiles/1000Hz_-3dBFS_3s_44.1kHz.wav',None,1000,28,2,114,0,,,,,467.3350089000014,468.3359905999969,468.33588273999777,469.8690171000053,470.3368235999951,2.5202903568363264,None,1,,,,,,,001,2023-11-08_14h00.16.129,Oddball_task,2022.2.5,59.9136404766703,
standard,soundFiles/1000Hz_-3dBFS_3s_44.1kHz.wav',None,1000,28,3,115,2,,,,,470.3368235999951,471.33589519999805,471.3361422399947,472.9191630999994,473.33641190000344,2.577240825140845,None,1,,,,,,,001,2023-11-08_14h00.16.129,Oddball_task,2022.2.5,59.9136404766703,
target,soundFiles/1200Hz_-3dBFS_3s_44.1kHz.wav',t,2000,29,0,116,3,,,,,473.33641190000344,474.321686700001,474.32141254000163,475.4352557999955,476.33565069999895,2.097023520447565,t,1,0.459587699995609,,,,,,001,2023-11-08_14h00.16.129,Oddball_task,2022.2.5,59.9136404766703,
standard,soundFiles/1000Hz_-3dBFS_3s_44.1kHz.wav',None,1000,29,1,117,2,,,,,476.33565069999895,477.3196655000065,477.3201978400073,478.83614990000206,479.3199453999987,2.494773090481592,None,1,,,,,,,001,2023-11-08_14h00.16.129,Oddball_task,2022.2.5,59.9136404766703,
standard,soundFiles/1000Hz_-3dBFS_3s_44.1kHz.wav',None,1000,29,2,118,0,,,,,479.3199453999987,480.3035094999941,480.30346164000076,482.75236729999597,482.3189018999983,3.4284881320132303,None,1,,,,,,,001,2023-11-08_14h00.16.129,Oddball_task,2022.2.5,59.9136404766703,
standard,soundFiles/1000Hz_-3dBFS_3s_44.1kHz.wav',None,1000,29,3,119,1,,,,,482.75236729999597,483.7518701999943,483.752573139999,485.65289230000053,485.75353420000465,2.887988933307439,None,1,,,,,,,001,2023-11-08_14h00.16.129,Oddball_task,2022.2.5,59.9136404766703,
target,soundFiles/1200Hz_-3dBFS_3s_44.1kHz.wav',t,2000,30,0,120,3,,,,,485.75353420000465,486.75235090000206,486.75213814000455,490.3028118999937,488.75260870000056,4.534236613622335,t,1,0.45291729999007657,,,,,,001,2023-11-08_14h00.16.129,Oddball_task,2022.2.5,59.9136404766703,
standard,soundFiles/1000Hz_-3dBFS_3s_44.1kHz.wav',None,1000,30,1,121,1,,,,,490.3028118999937,491.2858825000003,491.2862893400059,494.43658730000607,493.2863498000079,4.118504486037273,None,1,,,,,,,001,2023-11-08_14h00.16.129,Oddball_task,2022.2.5,59.9136404766703,
standard,soundFiles/1000Hz_-3dBFS_3s_44.1kHz.wav',None,1000,30,2,122,2,,,,,494.43658730000607,495.43527370000083,495.43565314000153,497.30250390000583,497.43554619999486,2.854804287447516,None,1,,,,,,,001,2023-11-08_14h00.16.129,Oddball_task,2022.2.5,59.9136404766703,
standard,soundFiles/1000Hz_-3dBFS_3s_44.1kHz.wav',None,1000,30,3,123,0,,,,,497.43554619999486,498.41854169999715,498.4191008399983,499.5027897999971,500.418955000001,2.067608679795887,None,1,,,,,,,001,2023-11-08_14h00.16.129,Oddball_task,2022.2.5,59.9136404766703,
standard,soundFiles/1000Hz_-3dBFS_3s_44.1kHz.wav',None,1000,31,0,124,1,,,,,500.418955000001,501.40215850000095,501.4032396400042,505.3865320000041,503.40222289999656,4.967810100646224,None,1,,,,,,,001,2023-11-08_14h00.16.129,Oddball_task,2022.2.5,59.9136404766703,
standard,soundFiles/1000Hz_-3dBFS_3s_44.1kHz.wav',None,1000,31,1,125,0,,,,,505.3865320000041,506.3854877999984,506.385365140003,507.6355040000053,508.38518739999563,2.2419901647422513,None,1,,507.3862698000012,,,,,001,2023-11-08_14h00.16.129,Oddball_task,2022.2.5,59.9136404766703,
target,soundFiles/1200Hz_-3dBFS_3s_44.1kHz.wav',t,2000,31,2,126,3,,,,,508.38518739999563,509.3690173000068,509.3699627399954,513.3026682000054,511.3683491999982,4.902945644732826,t,1,0.548075799990329,,,,,,001,2023-11-08_14h00.16.129,Oddball_task,2022.2.5,59.9136404766703,
standard,soundFiles/1000Hz_-3dBFS_3s_44.1kHz.wav',None,1000,31,3,127,2,,,,,513.3026682000054,514.302028399994,514.3019720400086,515.7690080000029,516.3013626000029,2.461520329322887,None,1,,,,,,,001,2023-11-08_14h00.16.129,Oddball_task,2022.2.5,59.9136404766703,
target,soundFiles/1200Hz_-3dBFS_3s_44.1kHz.wav',t,2000,32,0,128,3,,,,,516.3013626000029,517.3020531999937,517.3022594399997,519.3022036000038,519.3022036000038,2.9959898026545915,t,1,0.48758499999530613,,,,,,001,2023-11-08_14h00.16.129,Oddball_task,2022.2.5,59.9136404766703,
standard,soundFiles/1000Hz_-3dBFS_3s_44.1kHz.wav',None,1000,32,1,129,0,,,,,519.3022036000038,520.3086857000017,520.2899077399968,522.9023239999951,522.3229309000017,3.587663895547882,None,1,,,,,,,001,2023-11-08_14h00.16.129,Oddball_task,2022.2.5,59.9136404766703,
standard,soundFiles/1000Hz_-3dBFS_3s_44.1kHz.wav',None,1000,32,2,130,2,,,,,522.9023239999951,523.8881783999968,523.8869316399985,527.4204125999968,525.9022115999978,4.490579947053227,None,1,,,,,,,001,2023-11-08_14h00.16.129,Oddball_task,2022.2.5,59.9136404766703,
standard,soundFiles/1000Hz_-3dBFS_3s_44.1kHz.wav',None,1000,32,3,131,1,,,,,527.4204125999968,528.4022263000079,528.4031310400067,530.4697065000073,530.4029494999995,3.0442284140696736,None,1,,,,,,,001,2023-11-08_14h00.16.129,Oddball_task,2022.2.5,59.9136404766703,
target,soundFiles/1200Hz_-3dBFS_3s_44.1kHz.wav',t,2000,33,0,132,3,,,,,530.4697065000073,531.4690286999976,531.468962439995,532.5912058999966,533.4694276999944,2.099604135302722,t,1,0.53579829998489,,,,,,001,2023-11-08_14h00.16.129,Oddball_task,2022.2.5,59.9136404766703,
standard,soundFiles/1000Hz_-3dBFS_3s_44.1kHz.wav',None,1000,33,1,133,2,,,,,533.4694276999944,534.4696526000043,534.470167340002,536.7528963999939,536.4716562999965,3.269975047903319,None,1,,,,,,,001,2023-11-08_14h00.16.129,Oddball_task,2022.2.5,59.9136404766703,
standard,soundFiles/1000Hz_-3dBFS_3s_44.1kHz.wav',None,1000,33,2,134,0,,,,,536.7528963999939,537.7515659000055,537.7517405400038,541.319714600002,539.7524530999945,4.5530509973596,None,1,,,,,,,001,2023-11-08_14h00.16.129,Oddball_task,2022.2.5,59.9136404766703,
standard,soundFiles/1000Hz_-3dBFS_3s_44.1kHz.wav',None,1000,33,3,135,1,,,,,541.319714600002,542.3018125999952,542.3024027399995,544.2363762000023,544.3032297000027,2.9167889794849837,None,1,,,,,,,001,2023-11-08_14h00.16.129,Oddball_task,2022.2.5,59.9136404766703,
target,soundFiles/1200Hz_-3dBFS_3s_44.1kHz.wav',t,2000,34,0,136,3,,,,,544.3032297000027,545.3028636999952,545.3020295399954,548.8859235999989,547.3032111000066,4.579063076444677,t,1,0.47888439999951515,,,,,,001,2023-11-08_14h00.16.129,Oddball_task,2022.2.5,59.9136404766703,
standard,soundFiles/1000Hz_-3dBFS_3s_44.1kHz.wav',None,1000,34,1,137,1,,,,,548.8859235999989,549.8704508999945,549.8711707399968,551.3350910000008,551.8691879999969,2.446901532514649,None,1,,,,,,,001,2023-11-08_14h00.16.129,Oddball_task,2022.2.5,59.9136404766703,
standard,soundFiles/1000Hz_-3dBFS_3s_44.1kHz.wav',None,1000,34,2,138,2,,,,,551.8691879999969,552.8695597000042,552.8699750400017,556.0685746999952,554.869193999999,4.1891900329903375,None,1,,,,,,,001,2023-11-08_14h00.16.129,Oddball_task,2022.2.5,59.9136404766703,
standard,soundFiles/1000Hz_-3dBFS_3s_44.1kHz.wav',None,1000,34,3,139,0,,,,,556.0685746999952,557.0523007000011,557.052074240001,560.9690952999954,559.0521908999945,4.901266234501033,None,1,,,,,,,001,2023-11-08_14h00.16.129,Oddball_task,2022.2.5,59.9136404766703,
standard,soundFiles/1000Hz_-3dBFS_3s_44.1kHz.wav',None,1000,35,0,140,1,,,,,560.9690952999954,561.9689683000033,561.9692474399969,565.5359319999989,563.9692400000058,4.563376576344796,None,1,,,,,,,001,2023-11-08_14h00.16.129,Oddball_task,2022.2.5,59.9136404766703,
standard,soundFiles/1000Hz_-3dBFS_3s_44.1kHz.wav',None,1000,35,1,141,2,,,,,565.5359319999989,566.5352334000054,566.5357086400079,569.4855743999942,568.5587172999949,3.9471708696180725,None,1,,,,,,,001,2023-11-08_14h00.16.129,Oddball_task,2022.2.5,59.9136404766703,
target,soundFiles/1200Hz_-3dBFS_3s_44.1kHz.wav',t,2000,35,2,142,3,,,,,569.4855743999942,570.4865126999939,570.485159239998,573.1688030000078,572.4862424000021,3.6702161753183464,t,1,0.4644934999960242,,,,,,001,2023-11-08_14h00.16.129,Oddball_task,2022.2.5,59.9136404766703,
standard,soundFiles/1000Hz_-3dBFS_3s_44.1kHz.wav',None,1000,35,3,143,0,,,,,573.1688030000078,574.1685945000063,574.1684618400075,575.9021977999946,576.1697801999981,2.729643396570324,None,1,,,,,,,001,2023-11-08_14h00.16.129,Oddball_task,2022.2.5,59.9136404766703,
standard,soundFiles/1000Hz_-3dBFS_3s_44.1kHz.wav',None,1000,36,0,144,1,,,,,576.1697801999981,577.1687207000068,577.1687313400078,578.8688137999998,579.1696955999942,2.699910813682807,None,1,,,,,,,001,2023-11-08_14h00.16.129,Oddball_task,2022.2.5,59.9136404766703,
standard,soundFiles/1000Hz_-3dBFS_3s_44.1kHz.wav',None,1000,36,1,145,2,,,,,579.1696955999942,580.1687657000002,580.1690221399956,582.7522576000047,582.1696043999982,3.5709731119379633,None,1,,,,,,,001,2023-11-08_14h00.16.129,Oddball_task,2022.2.5,59.9136404766703,
target,soundFiles/1200Hz_-3dBFS_3s_44.1kHz.wav',t,2000,36,2,146,3,,,,,582.7522576000047,583.7385213999951,583.7366347399991,587.7195862999943,585.7518198000034,4.966524812889379,t,1,0.5391952000063611,,,,,,001,2023-11-08_14h00.16.129,Oddball_task,2022.2.5,59.9136404766703,
standard,soundFiles/1000Hz_-3dBFS_3s_44.1kHz.wav',None,1000,36,3,147,0,,,,,587.7195862999943,588.7062291000038,588.706792340007,589.8016499000078,590.7185777999985,2.0704328708557127,None,1,,,,,,,001,2023-11-08_14h00.16.129,Oddball_task,2022.2.5,59.9136404766703,
target,soundFiles/1200Hz_-3dBFS_3s_44.1kHz.wav',t,2000,37,0,148,3,,,,,590.7185777999985,591.706998900001,591.7057549399949,594.0539868000051,593.7226057999942,3.335054275703838,t,1,0.4744359999895096,,,,,,001,2023-11-08_14h00.16.129,Oddball_task,2022.2.5,59.9136404766703,
standard,soundFiles/1000Hz_-3dBFS_3s_44.1kHz.wav',None,1000,37,1,149,0,,,,,594.0539868000051,595.0520182000037,595.0520824400053,596.2031843000004,597.0524944000063,2.1368984761698,None,1,,,,,,,001,2023-11-08_14h00.16.129,Oddball_task,2022.2.5,59.9136404766703,
standard,soundFiles/1000Hz_-3dBFS_3s_44.1kHz.wav',None,1000,37,2,150,2,,,,,597.0524944000063,598.0363120999973,598.036431639998,599.7189574000076,600.0360575999948,2.660810086763157,None,1,,,,,,,001,2023-11-08_14h00.16.129,Oddball_task,2022.2.5,59.9136404766703,
standard,soundFiles/1000Hz_-3dBFS_3s_44.1kHz.wav',None,1000,37,3,151,1,,,,,600.0360575999948,601.0358546000061,601.0351481400037,602.4523449999979,603.0357377000037,2.4124855983748343,None,1,,602.035781700004,,,,,001,2023-11-08_14h00.16.129,Oddball_task,2022.2.5,59.9136404766703,
standard,soundFiles/1000Hz_-3dBFS_3s_44.1kHz.wav',None,1000,38,0,152,2,,,,,603.0357377000037,604.0197113000031,604.0195923400067,607.3187996000051,606.0356964999955,4.279969845766024,None,1,,,,,,,001,2023-11-08_14h00.16.129,Oddball_task,2022.2.5,59.9136404766703,
standard,soundFiles/1000Hz_-3dBFS_3s_44.1kHz.wav',None,1000,38,1,153,1,,,,,607.3187996000051,608.3182449000014,608.3187845399996,609.5690532000008,610.319478999998,2.2500650317491973,None,1,,,,,,,001,2023-11-08_14h00.16.129,Oddball_task,2022.2.5,59.9136404766703,
target,soundFiles/1200Hz_-3dBFS_3s_44.1kHz.wav',t,2000,38,2,154,3,,,,,610.319478999998,611.3022558999946,611.302612040007,613.9853294000059,613.3020439999964,3.655675802502403,t,1,0.45496339999954216,,,,,,001,2023-11-08_14h00.16.129,Oddball_task,2022.2.5,59.9136404766703,
standard,soundFiles/1000Hz_-3dBFS_3s_44.1kHz.wav',None,1000,38,3,155,0,,,,,613.9853294000059,614.9690241000062,614.969843240008,618.8698510999966,616.969540200007,4.8825000109344625,None,1,,,,,,,001,2023-11-08_14h00.16.129,Oddball_task,2022.2.5,59.9136404766703,
target,soundFiles/1200Hz_-3dBFS_3s_44.1kHz.wav',t,2000,39,0,156,3,,,,,618.8698510999966,619.8689405000041,619.8692676399994,623.1855719000014,621.8695079000026,4.302486003738295,t,1,0.5127154999936465,,,,,,001,2023-11-08_14h00.16.129,Oddball_task,2022.2.5,59.9136404766703,
standard,soundFiles/1000Hz_-3dBFS_3s_44.1kHz.wav',None,1000,39,1,157,0,,,,,623.1855719000014,624.1857904000062,624.1855369400043,628.0185676999972,626.1855479000078,4.820429566897603,None,1,,,,,,,001,2023-11-08_14h00.16.129,Oddball_task,2022.2.5,59.9136404766703,
standard,soundFiles/1000Hz_-3dBFS_3s_44.1kHz.wav',None,1000,39,2,158,2,,,,,628.0185676999972,629.0029347999953,629.0042416399999,632.0015063000028,631.0020133000071,3.9712216743803577,None,1,,,,,,,001,2023-11-08_14h00.16.129,Oddball_task,2022.2.5,59.9136404766703,
standard,soundFiles/1000Hz_-3dBFS_3s_44.1kHz.wav',None,1000,39,3,159,1,,,,,632.0015063000028,633.0019683999999,633.002438640008,635.6030062000063,635.0028598000063,3.59808655926483,None,1,,,,,,,001,2023-11-08_14h00.16.129,Oddball_task,2022.2.5,59.9136404766703,
standard,soundFiles/1000Hz_-3dBFS_3s_44.1kHz.wav',None,1000,40,0,160,1,,,,,635.6030062000063,636.6029008000041,636.6021608400085,640.4076079000079,638.6023405000014,4.78603139114249,None,1,,,,,,,001,2023-11-08_14h00.16.129,Oddball_task,2022.2.5,59.9136404766703,
standard,soundFiles/1000Hz_-3dBFS_3s_44.1kHz.wav',None,1000,40,1,161,0,,,,,640.4076079000079,641.3854839999985,641.3857623400006,644.2357797000004,643.386926399995,3.8229304525019723,None,1,,,,,,,001,2023-11-08_14h00.16.129,Oddball_task,2022.2.5,59.9136404766703,
standard,soundFiles/1000Hz_-3dBFS_3s_44.1kHz.wav',None,1000,40,2,162,2,,,,,644.2357797000004,645.2352040999976,645.2348331400033,648.335839899999,647.2376256999996,4.092098275612162,None,1,,,,,,,001,2023-11-08_14h00.16.129,Oddball_task,2022.2.5,59.9136404766703,
target,soundFiles/1200Hz_-3dBFS_3s_44.1kHz.wav',t,2000,40,3,163,3,,,,,648.335839899999,649.3353352999984,649.3357796399985,650.8020080999995,651.3357131999946,2.4659718595448648,t,1,0.5339787999982946,,,,,,001,2023-11-08_14h00.16.129,Oddball_task,2022.2.5,59.9136404766703,
standard,soundFiles/1000Hz_-3dBFS_3s_44.1kHz.wav',None,1000,41,0,164,2,,,,,651.3357131999946,652.3365845999942,652.3356363399987,655.9527705000073,654.3355437999999,4.611307007597733,None,1,,,,,,,001,2023-11-08_14h00.16.129,Oddball_task,2022.2.5,59.9136404766703,
standard,soundFiles/1000Hz_-3dBFS_3s_44.1kHz.wav',None,1000,41,1,165,0,,,,,655.9527705000073,656.9519291000033,656.9512355399972,659.0235949000053,658.9766774000018,3.0320691468708447,None,1,,,,,,,001,2023-11-08_14h00.16.129,Oddball_task,2022.2.5,59.9136404766703,
target,soundFiles/1200Hz_-3dBFS_3s_44.1kHz.wav',t,2000,41,2,166,3,,,,,659.0235949000053,659.9854295999976,659.9853885399978,662.0519463999954,661.9852124000026,3.0179885735147436,t,1,0.5321684999944409,660.9856033999968,,,,,001,2023-11-08_14h00.16.129,Oddball_task,2022.2.5,59.9136404766703,
standard,soundFiles/1000Hz_-3dBFS_3s_44.1kHz.wav',None,1000,41,3,167,1,,,,,662.0519463999954,663.0517266999959,663.0523465400081,666.2520948000019,665.0543464999937,4.198008571140701,None,1,,,,,,,001,2023-11-08_14h00.16.129,Oddball_task,2022.2.5,59.9136404766703,
standard,soundFiles/1000Hz_-3dBFS_3s_44.1kHz.wav',None,1000,42,0,168,1,,,,,666.2520948000019,667.2360171000037,667.2364415399977,670.769323200002,669.2356049999944,4.507308599788161,None,1,,,,,,,001,2023-11-08_14h00.16.129,Oddball_task,2022.2.5,59.9136404766703,
target,soundFiles/1200Hz_-3dBFS_3s_44.1kHz.wav',t,2000,42,1,169,3,,,,,670.769323200002,671.7683434000064,671.7682434399946,674.9549165000062,673.7686949000054,4.1794293199940435,t,1,0.4848437000036938,,,,,,001,2023-11-08_14h00.16.129,Oddball_task,2022.2.5,59.9136404766703,
standard,soundFiles/1000Hz_-3dBFS_3s_44.1kHz.wav',None,1000,42,2,170,2,,,,,674.9549165000062,675.9535331999941,675.9528213400088,677.0196391000063,677.9690437999961,2.0641195728992825,None,1,,,,,,,001,2023-11-08_14h00.16.129,Oddball_task,2022.2.5,59.9136404766703,
standard,soundFiles/1000Hz_-3dBFS_3s_44.1kHz.wav',None,1000,42,3,171,0,,,,,677.9690437999961,678.9685443000053,678.9690909399985,682.4521019999956,680.9702118999994,4.4693805412735905,None,1,,,,,,,001,2023-11-08_14h00.16.129,Oddball_task,2022.2.5,59.9136404766703,
standard,soundFiles/1000Hz_-3dBFS_3s_44.1kHz.wav',None,1000,43,0,172,1,,,,,682.4521019999956,683.4529720999999,683.4525439400065,685.9354171000014,685.4693503000017,3.4772346512752743,None,1,,,,,,,001,2023-11-08_14h00.16.129,Oddball_task,2022.2.5,59.9136404766703,
target,soundFiles/1200Hz_-3dBFS_3s_44.1kHz.wav',t,2000,43,1,173,3,,,,,685.9354171000014,686.9361637999973,686.9362988399996,690.218864399998,688.9740384000033,4.279657088676197,t,1,0.6299095999856945,,,,,,001,2023-11-08_14h00.16.129,Oddball_task,2022.2.5,59.9136404766703,
standard,soundFiles/1000Hz_-3dBFS_3s_44.1kHz.wav',None,1000,43,2,174,0,,,,,690.218864399998,691.203482900004,691.2036834399958,694.2190641000052,693.2186629000062,3.9965391721652503,None,1,,,,,,,001,2023-11-08_14h00.16.129,Oddball_task,2022.2.5,59.9136404766703,
standard,soundFiles/1000Hz_-3dBFS_3s_44.1kHz.wav',None,1000,43,3,175,2,,,,,694.2190641000052,695.2019588999974,695.202400140003,697.7348808999959,697.2402479000011,3.5033564311143843,None,1,,,,,,,001,2023-11-08_14h00.16.129,Oddball_task,2022.2.5,59.9136404766703,
standard,soundFiles/1000Hz_-3dBFS_3s_44.1kHz.wav',None,1000,44,0,176,2,,,,,697.7348808999959,698.7354722000018,698.7354352400041,699.9522533999989,700.7351435000019,2.2109230485936426,None,1,,,,,,,001,2023-11-08_14h00.16.129,Oddball_task,2022.2.5,59.9136404766703,
standard,soundFiles/1000Hz_-3dBFS_3s_44.1kHz.wav',None,1000,44,1,177,0,,,,,700.7351435000019,701.735788799997,701.7349651400043,705.4357995000028,703.7362110999966,4.689969876816582,None,1,,,,,,,001,2023-11-08_14h00.16.129,Oddball_task,2022.2.5,59.9136404766703,
target,soundFiles/1200Hz_-3dBFS_3s_44.1kHz.wav',t,2000,44,2,178,3,,,,,705.4357995000028,706.4357839000004,706.435937439998,709.3388451000064,708.4350626999949,3.8771953892008666,t,1,0.47321509999164846,,,,,,001,2023-11-08_14h00.16.129,Oddball_task,2022.2.5,59.9136404766703,
standard,soundFiles/1000Hz_-3dBFS_3s_44.1kHz.wav',None,1000,44,3,179,1,,,,,709.3388451000064,710.3193121999939,710.3189679399991,713.6527589000034,712.3221408999962,4.3138223307601855,None,1,,,,,,,001,2023-11-08_14h00.16.129,Oddball_task,2022.2.5,59.9136404766703,
target,soundFiles/1200Hz_-3dBFS_3s_44.1kHz.wav',t,2000,45,0,180,3,,,,,713.6527589000034,714.6522939999995,714.6524231400006,716.2691287000052,716.6685386000026,2.6078565602561374,t,1,0.552299300004961,,,,,,001,2023-11-08_14h00.16.129,Oddball_task,2022.2.5,59.9136404766703,
standard,soundFiles/1000Hz_-3dBFS_3s_44.1kHz.wav',None,1000,45,1,181,1,,,,,716.6685386000026,717.651867499997,717.6535854400033,719.5513395000016,719.6511405000056,2.8751765957777735,None,1,,,,,,,001,2023-11-08_14h00.16.129,Oddball_task,2022.2.5,59.9136404766703,
standard,soundFiles/1000Hz_-3dBFS_3s_44.1kHz.wav',None,1000,45,2,182,2,,,,,719.6511405000056,720.6354848000046,720.6355160400024,722.8519305999944,722.6353903999989,3.2011735563350117,None,1,,,,,,,001,2023-11-08_14h00.16.129,Oddball_task,2022.2.5,59.9136404766703,
standard,soundFiles/1000Hz_-3dBFS_3s_44.1kHz.wav',None,1000,45,3,183,0,,,,,722.8519305999944,723.8519420999946,723.8521908400041,726.2861859999975,725.853137500002,3.4279058281705117,None,1,,,,,,,001,2023-11-08_14h00.16.129,Oddball_task,2022.2.5,59.9136404766703,
target,soundFiles/1200Hz_-3dBFS_3s_44.1kHz.wav',t,2000,46,0,184,3,,,,,726.2861859999975,727.2858268999989,727.2854909400091,730.2862179999938,729.2854961999983,3.989754911316537,t,1,0.6154156999982661,,,,,,001,2023-11-08_14h00.16.129,Oddball_task,2022.2.5,59.9136404766703,
standard,soundFiles/1000Hz_-3dBFS_3s_44.1kHz.wav',None,1000,46,1,185,2,,,,,730.2862179999938,731.286617100006,731.2860900400017,732.9019211999985,733.2860661000013,2.6155478697822376,None,1,,732.2851785999956,,,,,001,2023-11-08_14h00.16.129,Oddball_task,2022.2.5,59.9136404766703,
standard,soundFiles/1000Hz_-3dBFS_3s_44.1kHz.wav',None,1000,46,2,186,0,,,,,733.2860661000013,734.285604500008,734.2860236400054,735.5249236999953,736.3032964000013,2.209546949832347,None,1,,,,,,,001,2023-11-08_14h00.16.129,Oddball_task,2022.2.5,59.9136404766703,
standard,soundFiles/1000Hz_-3dBFS_3s_44.1kHz.wav',None,1000,46,3,187,1,,,,,736.3032964000013,737.2857430000004,737.2853978399987,741.1856720000069,739.2849929000076,4.877427392576891,None,1,,,,,,,001,2023-11-08_14h00.16.129,Oddball_task,2022.2.5,59.9136404766703,
target,soundFiles/1200Hz_-3dBFS_3s_44.1kHz.wav',t,2000,47,0,188,3,,,,,741.1856720000069,742.186272100007,742.1855178400044,744.069038200003,744.1859958999994,2.870315157278019,t,1,0.6269893999997294,,,,,,001,2023-11-08_14h00.16.129,Oddball_task,2022.2.5,59.9136404766703,
standard,soundFiles/1000Hz_-3dBFS_3s_44.1kHz.wav',None,1000,47,1,189,1,,,,,744.1859958999994,745.1694295000052,745.1696040400027,746.6520193000033,747.1699837000051,2.467551037765544,None,1,,,,,,,001,2023-11-08_14h00.16.129,Oddball_task,2022.2.5,59.9136404766703,
standard,soundFiles/1000Hz_-3dBFS_3s_44.1kHz.wav',None,1000,47,2,190,2,,,,,747.1699837000051,748.1688129999966,748.1685806399953,750.752799599999,750.1679902000033,3.5748277950272307,None,1,,,,,,,001,2023-11-08_14h00.16.129,Oddball_task,2022.2.5,59.9136404766703,
standard,soundFiles/1000Hz_-3dBFS_3s_44.1kHz.wav',None,1000,47,3,191,0,,,,,750.752799599999,751.7527984000044,751.7528562400009,754.0034216000058,753.7723951999942,3.251429387947227,None,1,,,,,,,001,2023-11-08_14h00.16.129,Oddball_task,2022.2.5,59.9136404766703,
target,soundFiles/1200Hz_-3dBFS_3s_44.1kHz.wav',t,2000,48,0,192,3,,,,,754.0034216000058,755.0026571000053,755.002874240007,756.6686787000071,757.0026533000055,2.6572287597413813,t,1,0.5707423999992898,,,,,,001,2023-11-08_14h00.16.129,Oddball_task,2022.2.5,59.9136404766703,
standard,soundFiles/1000Hz_-3dBFS_3s_44.1kHz.wav',None,1000,48,1,193,1,,,,,757.0026533000055,758.0091556999978,757.9939100399977,759.4528681999946,760.0195195999986,2.434800759167256,None,1,,,,,,,001,2023-11-08_14h00.16.129,Oddball_task,2022.2.5,59.9136404766703,
standard,soundFiles/1000Hz_-3dBFS_3s_44.1kHz.wav',None,1000,48,2,194,2,,,,,760.0195195999986,761.0182963999978,761.0188328400006,764.4529014,763.0180655000004,4.424932190323941,None,1,,,,,,,001,2023-11-08_14h00.16.129,Oddball_task,2022.2.5,59.9136404766703,
standard,soundFiles/1000Hz_-3dBFS_3s_44.1kHz.wav',None,1000,48,3,195,0,,,,,764.4529014,765.4519389000052,765.4521084400083,768.2195213999948,767.4542586000025,3.7631154447564326,None,1,,,,,,,001,2023-11-08_14h00.16.129,Oddball_task,2022.2.5,59.9136404766703,
standard,soundFiles/1000Hz_-3dBFS_3s_44.1kHz.wav',None,1000,49,0,196,2,,,,,768.2195213999948,769.2195232999948,769.2198580400043,770.8686558000045,771.2348717999994,2.641658131498749,None,1,,,,,,,001,2023-11-08_14h00.16.129,Oddball_task,2022.2.5,59.9136404766703,
standard,soundFiles/1000Hz_-3dBFS_3s_44.1kHz.wav',None,1000,49,1,197,0,,,,,771.2348717999994,772.2351587000012,772.2355858400012,773.2694245000021,774.2349637000007,2.0182583356475057,None,1,,,,,,,001,2023-11-08_14h00.16.129,Oddball_task,2022.2.5,59.9136404766703,
target,soundFiles/1200Hz_-3dBFS_3s_44.1kHz.wav',t,2000,49,2,198,3,,,,,774.2349637000007,775.2354341000027,775.2353439400074,776.3518877000024,777.2358358000056,2.105747840374015,t,1,0.46533659999840893,,,,,,001,2023-11-08_14h00.16.129,Oddball_task,2022.2.5,59.9136404766703,
standard,soundFiles/1000Hz_-3dBFS_3s_44.1kHz.wav',None,1000,49,3,199,1,,,,,777.2358358000056,778.2359360999981,778.235185739996,781.4182837999979,780.2351915000036,4.180581911693961,None,1,,,,,,,001,2023-11-08_14h00.16.129,Oddball_task,2022.2.5,59.9136404766703,
,,,,,,,,,,,,,,,,,,,,,,781.4182837999979,784.4191289000009,784.4191289000009,,,,,,,
