trial,file,corrAns,tone,trials_2.thisRepN,trials_2.thisTrialN,trials_2.thisN,trials_2.thisIndex,instructions.started,key_resp_1.started,key_resp_1.keys,key_resp_1.rt,fixation.started,response.started,sound_1.started,fixation.stopped,response.stopped,FixDur,response.keys,response.corr,response.rt,sound_1.stopped,participant,session,date,expName,psychopyVersion,frameRate,
,,,,,,,,70.83755900000688,70.83755900000688,space,2.3055667000007816,,,,,,,,,,,,001,2023-10-31_11h21.29.605,Oddball_task,2022.2.5,60.13764304233678,
standard,soundFiles/1000Hz_-3dBFS_3s_44.1kHz.wav',None,1000,0,0,0,2,,,,,73.1862650999683,74.15276879997691,74.15618011998012,75.80355059995782,76.1531426999718,2.6113803643141167,None,1,,,,001,2023-10-31_11h21.29.605,Oddball_task,2022.2.5,60.13764304233678,
standard,soundFiles/1000Hz_-3dBFS_3s_44.1kHz.wav',None,1000,0,1,1,1,,,,,76.1531426999718,77.15381920000073,77.15230621999362,79.63855769997463,79.15337459999137,3.4677084397986553,None,1,,,,001,2023-10-31_11h21.29.605,Oddball_task,2022.2.5,60.13764304233678,
target,soundFiles/1200Hz_-3dBFS_3s_44.1kHz.wav',t,2000,0,2,2,3,,,,,79.63855769997463,80.63649089995306,80.63611732000717,82.1529832999804,82.63698379998095,2.506338133845795,t,1,1.162276400020346,,,001,2023-10-31_11h21.29.605,Oddball_task,2022.2.5,60.13764304233678,
standard,soundFiles/1000Hz_-3dBFS_3s_44.1kHz.wav',None,1000,0,3,3,0,,,,,82.63698379998095,83.63654929999029,83.63662872000131,85.81989319995046,85.63684589997865,3.168689152023538,None,1,,,,001,2023-10-31_11h21.29.605,Oddball_task,2022.2.5,60.13764304233678,
standard,soundFiles/1000Hz_-3dBFS_3s_44.1kHz.wav',None,1000,1,0,4,2,,,,,85.81989319995046,86.8194115999504,86.81884331997716,89.78801479999674,88.81973180000205,3.9592166460848954,None,1,,,,001,2023-10-31_11h21.29.605,Oddball_task,2022.2.5,60.13764304233678,
target,soundFiles/1200Hz_-3dBFS_3s_44.1kHz.wav',t,2000,1,1,5,3,,,,,89.78801479999674,90.785988299991,90.78559751997236,93.0022332999506,92.78597799997078,3.211457775557516,t,1,0.6766953999758698,,,001,2023-10-31_11h21.29.605,Oddball_task,2022.2.5,60.13764304233678,
standard,soundFiles/1000Hz_-3dBFS_3s_44.1kHz.wav',None,1000,1,2,6,0,,,,,93.0022332999506,94.00236719998065,94.00335301996674,95.61888399999589,96.00247700000182,2.6060060925326183,None,1,,,,001,2023-10-31_11h21.29.605,Oddball_task,2022.2.5,60.13764304233678,
standard,soundFiles/1000Hz_-3dBFS_3s_44.1kHz.wav',None,1000,1,3,7,1,,,,,96.00247700000182,97.00216649996582,97.00278951998334,99.2362610999844,99.00212689995533,3.23093757399095,None,1,,,,001,2023-10-31_11h21.29.605,Oddball_task,2022.2.5,60.13764304233678,
target,soundFiles/1200Hz_-3dBFS_3s_44.1kHz.wav',t,2000,2,0,8,3,,,,,99.2362610999844,100.22095569997327,100.22112001999048,103.15318159997696,102.23588089999976,3.907124834421914,t,1,0.7143110999604687,,,001,2023-10-31_11h21.29.605,Oddball_task,2022.2.5,60.13764304233678,
standard,soundFiles/1000Hz_-3dBFS_3s_44.1kHz.wav',None,1000,2,1,9,1,,,,,103.15318159997696,104.13653109996812,104.13940691996831,105.50285559997428,106.13653929997236,2.341383517626634,None,1,,,,001,2023-10-31_11h21.29.605,Oddball_task,2022.2.5,60.13764304233678,
standard,soundFiles/1000Hz_-3dBFS_3s_44.1kHz.wav',None,1000,2,2,10,2,,,,,106.13653929997236,107.13732759997947,107.13593751997686,108.43715670000529,109.13558259996353,2.2997980792715813,None,1,,,,001,2023-10-31_11h21.29.605,Oddball_task,2022.2.5,60.13764304233678,
standard,soundFiles/1000Hz_-3dBFS_3s_44.1kHz.wav',None,1000,2,3,11,0,,,,,109.13558259996353,110.1368982999702,110.13849871997954,111.4356143999612,112.13582219998352,2.292570706191361,None,1,,,,001,2023-10-31_11h21.29.605,Oddball_task,2022.2.5,60.13764304233678,
standard,soundFiles/1000Hz_-3dBFS_3s_44.1kHz.wav',None,1000,3,0,12,0,,,,,112.13582219998352,113.13531969999894,113.1363925200072,114.95220519998111,115.13624369999161,2.816275759585019,None,1,,,,001,2023-10-31_11h21.29.605,Oddball_task,2022.2.5,60.13764304233678,
target,soundFiles/1200Hz_-3dBFS_3s_44.1kHz.wav',t,2000,3,1,13,3,,,,,115.13624369999161,116.13688519998686,116.13622741997241,117.86983619997045,118.13638339994941,2.726029195789323,t,1,0.6306006999802776,117.13611909997417,,001,2023-10-31_11h21.29.605,Oddball_task,2022.2.5,60.13764304233678,
standard,soundFiles/1000Hz_-3dBFS_3s_44.1kHz.wav',None,1000,3,2,14,2,,,,,118.13638339994941,119.13625589996809,119.13663071995833,120.76920919999247,121.13665989995934,2.6190011345545914,None,1,,,,001,2023-10-31_11h21.29.605,Oddball_task,2022.2.5,60.13764304233678,
standard,soundFiles/1000Hz_-3dBFS_3s_44.1kHz.wav',None,1000,3,3,15,1,,,,,121.13665989995934,122.1379970999551,122.13752761997748,124.17018529999768,124.1369647999527,3.0187141597092446,None,1,,,,001,2023-10-31_11h21.29.605,Oddball_task,2022.2.5,60.13764304233678,
standard,soundFiles/1000Hz_-3dBFS_3s_44.1kHz.wav',None,1000,4,0,16,2,,,,,124.17018529999768,125.17074779997347,125.17109251996735,127.09352349996334,127.18798869999591,2.9106018978889243,None,1,,,,001,2023-10-31_11h21.29.605,Oddball_task,2022.2.5,60.13764304233678,
standard,soundFiles/1000Hz_-3dBFS_3s_44.1kHz.wav',None,1000,4,1,17,0,,,,,127.18798869999591,128.1711140999687,128.17157401996664,130.63645679998444,130.17468669998925,3.445617684868953,None,1,,129.1719794999808,,001,2023-10-31_11h21.29.605,Oddball_task,2022.2.5,60.13764304233678,
standard,soundFiles/1000Hz_-3dBFS_3s_44.1kHz.wav',None,1000,4,2,18,1,,,,,130.63645679998444,131.63591319997795,131.63706101997522,132.91966369998408,133.63646479998715,2.270161489149341,None,1,,,,001,2023-10-31_11h21.29.605,Oddball_task,2022.2.5,60.13764304233678,
target,soundFiles/1200Hz_-3dBFS_3s_44.1kHz.wav',t,2000,4,3,19,3,,,,,133.63646479998715,134.63685259997146,134.63671342000598,135.80310039996402,136.63650289998623,2.156915333800451,t,1,0.6344706999952905,,,001,2023-10-31_11h21.29.605,Oddball_task,2022.2.5,60.13764304233678,
standard,soundFiles/1000Hz_-3dBFS_3s_44.1kHz.wav',None,1000,5,0,20,2,,,,,136.63650289998623,137.6367541999789,137.63584511997178,139.07055429997854,139.63726160000078,2.4300477318040556,None,1,,,,001,2023-10-31_11h21.29.605,Oddball_task,2022.2.5,60.13764304233678,
standard,soundFiles/1000Hz_-3dBFS_3s_44.1kHz.wav',None,1000,5,1,21,0,,,,,139.63726160000078,140.64005990000442,140.6358150199754,143.13715189998038,142.65239459997974,3.4934292277392327,None,1,,,,001,2023-10-31_11h21.29.605,Oddball_task,2022.2.5,60.13764304233678,
target,soundFiles/1200Hz_-3dBFS_3s_44.1kHz.wav',t,2000,5,2,22,3,,,,,143.13715189998038,144.13658309995662,144.13578101994935,146.28666270000394,146.13729839998996,3.144582549191311,t,1,1.7272765000234358,,,001,2023-10-31_11h21.29.605,Oddball_task,2022.2.5,60.13764304233678,
standard,soundFiles/1000Hz_-3dBFS_3s_44.1kHz.wav',None,1000,5,3,23,1,,,,,146.28666270000394,147.28658549999818,147.28588671996258,149.0030662000063,149.28649329999462,2.709426365546484,None,1,,,,001,2023-10-31_11h21.29.605,Oddball_task,2022.2.5,60.13764304233678,
standard,soundFiles/1000Hz_-3dBFS_3s_44.1kHz.wav',None,1000,6,0,24,1,,,,,149.28649329999462,150.28827169997385,150.28622951995348,151.92050869995728,152.30330239998875,2.627864021544813,None,1,,,,001,2023-10-31_11h21.29.605,Oddball_task,2022.2.5,60.13764304233678,
target,soundFiles/1200Hz_-3dBFS_3s_44.1kHz.wav',t,2000,6,1,25,3,,,,,152.30330239998875,153.30232019996038,153.30388642000034,154.35325029998785,155.30232849996537,2.0443348009062796,t,1,1.0170902999816462,154.30249279999407,,001,2023-10-31_11h21.29.605,Oddball_task,2022.2.5,60.13764304233678,
standard,soundFiles/1000Hz_-3dBFS_3s_44.1kHz.wav',None,1000,6,2,26,2,,,,,155.30232849996537,156.30428609997034,156.303923019988,158.17037269996945,158.30277819995536,2.8695667349629588,None,1,,157.3024665999692,,001,2023-10-31_11h21.29.605,Oddball_task,2022.2.5,60.13764304233678,
standard,soundFiles/1000Hz_-3dBFS_3s_44.1kHz.wav',None,1000,6,3,27,0,,,,,158.30277819995536,159.28709429997252,159.28857781996484,160.71993739996105,161.30354999995325,2.4061957372523888,None,1,,,,001,2023-10-31_11h21.29.605,Oddball_task,2022.2.5,60.13764304233678,
standard,soundFiles/1000Hz_-3dBFS_3s_44.1kHz.wav',None,1000,7,0,28,2,,,,,161.30354999995325,162.30296519998228,162.3024873199989,165.27080870000646,164.30344930000138,3.962307769956972,None,1,,,,001,2023-10-31_11h21.29.605,Oddball_task,2022.2.5,60.13764304233678,
standard,soundFiles/1000Hz_-3dBFS_3s_44.1kHz.wav',None,1000,7,1,29,0,,,,,165.27080870000646,166.26971169997705,166.2711056199856,167.48667620000197,168.26954609999666,2.205726276862653,None,1,,,,001,2023-10-31_11h21.29.605,Oddball_task,2022.2.5,60.13764304233678,
standard,soundFiles/1000Hz_-3dBFS_3s_44.1kHz.wav',None,1000,7,2,30,1,,,,,168.26954609999666,169.26963789999718,169.27020011995918,171.00520809995942,171.27255259995582,2.7267068098889364,None,1,,170.26923869998427,,001,2023-10-31_11h21.29.605,Oddball_task,2022.2.5,60.13764304233678,
target,soundFiles/1200Hz_-3dBFS_3s_44.1kHz.wav',t,2000,7,3,31,3,,,,,171.27255259995582,172.2707231999957,172.26932111995993,173.71907190000638,174.28620469995076,2.445250076473901,t,1,0.5926218999666162,,,001,2023-10-31_11h21.29.605,Oddball_task,2022.2.5,60.13764304233678,
standard,soundFiles/1000Hz_-3dBFS_3s_44.1kHz.wav',None,1000,8,0,32,0,,,,,174.28620469995076,175.28574879997177,175.28703821999952,177.10352949996013,177.28704629995627,2.817549362144259,None,1,,,,001,2023-10-31_11h21.29.605,Oddball_task,2022.2.5,60.13764304233678,
target,soundFiles/1200Hz_-3dBFS_3s_44.1kHz.wav',t,2000,8,1,33,3,,,,,177.28704629995627,178.28825119999237,178.28696671997895,180.25286969996523,180.30329959996743,2.9515558585924877,t,1,0.8871980999829248,,,001,2023-10-31_11h21.29.605,Oddball_task,2022.2.5,60.13764304233678,
standard,soundFiles/1000Hz_-3dBFS_3s_44.1kHz.wav',None,1000,8,2,34,2,,,,,180.30329959996743,181.30299009999726,181.30338411995908,183.60361049999483,183.3028714999673,3.287721227471714,None,1,,,,001,2023-10-31_11h21.29.605,Oddball_task,2022.2.5,60.13764304233678,
standard,soundFiles/1000Hz_-3dBFS_3s_44.1kHz.wav',None,1000,8,3,35,1,,,,,183.60361049999483,184.60370589996455,184.60459561997558,186.5036896999809,186.60382389998995,2.8872099768128097,None,1,,,,001,2023-10-31_11h21.29.605,Oddball_task,2022.2.5,60.13764304233678,
target,soundFiles/1200Hz_-3dBFS_3s_44.1kHz.wav',t,2000,9,0,36,3,,,,,186.60382389998995,187.6035225999658,187.60230951997218,189.48616239998955,189.60410299996147,2.8689286062066714,t,1,0.572142300021369,,,001,2023-10-31_11h21.29.605,Oddball_task,2022.2.5,60.13764304233678,
standard,soundFiles/1000Hz_-3dBFS_3s_44.1kHz.wav',None,1000,9,1,37,2,,,,,189.60410299996147,190.60324099997524,190.6039839199744,191.82033199997386,192.60363699996378,2.2025228044844423,None,1,,,,001,2023-10-31_11h21.29.605,Oddball_task,2022.2.5,60.13764304233678,
standard,soundFiles/1000Hz_-3dBFS_3s_44.1kHz.wav',None,1000,9,2,38,0,,,,,192.60363699996378,193.60285859997384,193.60340301997493,196.53715769998962,195.60339209996164,3.923661246143652,None,1,,194.6036920999759,,001,2023-10-31_11h21.29.605,Oddball_task,2022.2.5,60.13764304233678,
standard,soundFiles/1000Hz_-3dBFS_3s_44.1kHz.wav',None,1000,9,3,39,1,,,,,196.53715769998962,197.53735119994963,197.53634401995222,199.6867395999725,199.537595999951,3.1385358263004957,None,1,,198.53780529997312,,001,2023-10-31_11h21.29.605,Oddball_task,2022.2.5,60.13764304233678,
standard,soundFiles/1000Hz_-3dBFS_3s_44.1kHz.wav',None,1000,10,0,40,1,,,,,199.6867395999725,200.6701480000047,200.67066431996645,202.65402889996767,202.6696227999637,2.955706738716735,None,1,,,,001,2023-10-31_11h21.29.605,Oddball_task,2022.2.5,60.13764304233678,
standard,soundFiles/1000Hz_-3dBFS_3s_44.1kHz.wav',None,1000,10,1,41,2,,,,,202.6696227999637,203.67025079997256,203.67024951995117,205.48615719994996,205.6705534000066,2.802604588431959,None,1,,,,001,2023-10-31_11h21.29.605,Oddball_task,2022.2.5,60.13764304233678,
standard,soundFiles/1000Hz_-3dBFS_3s_44.1kHz.wav',None,1000,10,2,42,0,,,,,205.6705534000066,206.67049220000627,206.67026442000642,208.70368729997426,208.66987419995712,3.02690110985158,None,1,,,,001,2023-10-31_11h21.29.605,Oddball_task,2022.2.5,60.13764304233678,
target,soundFiles/1200Hz_-3dBFS_3s_44.1kHz.wav',t,2000,10,3,43,3,,,,,208.70368729997426,209.70289119996596,209.70298371996032,211.6203400999657,211.7045694999979,2.9092712679488617,t,1,0.7374014999950305,,,001,2023-10-31_11h21.29.605,Oddball_task,2022.2.5,60.13764304233678,
standard,soundFiles/1000Hz_-3dBFS_3s_44.1kHz.wav',None,1000,11,0,44,0,,,,,211.7045694999979,212.70275409996975,212.7036901199841,214.1363929999643,214.70380590000423,2.4283375624293813,None,1,,,,001,2023-10-31_11h21.29.605,Oddball_task,2022.2.5,60.13764304233678,
standard,soundFiles/1000Hz_-3dBFS_3s_44.1kHz.wav',None,1000,11,1,45,2,,,,,214.70380590000423,215.70321169996168,215.70385881998808,217.17008039995562,217.70338749996154,2.460118679839774,None,1,,,,001,2023-10-31_11h21.29.605,Oddball_task,2022.2.5,60.13764304233678,
standard,soundFiles/1000Hz_-3dBFS_3s_44.1kHz.wav',None,1000,11,2,46,1,,,,,217.70338749996154,218.7030455999775,218.70390541999367,221.1385010999511,220.70456589997048,3.4218530480482876,None,1,,,,001,2023-10-31_11h21.29.605,Oddball_task,2022.2.5,60.13764304233678,
target,soundFiles/1200Hz_-3dBFS_3s_44.1kHz.wav',t,2000,11,3,47,3,,,,,221.1385010999511,222.13680199999362,222.13768911998486,224.43788359995233,224.13636099995347,3.287101561358197,t,1,0.567919900000561,,,001,2023-10-31_11h21.29.605,Oddball_task,2022.2.5,60.13764304233678,
standard,soundFiles/1000Hz_-3dBFS_3s_44.1kHz.wav',None,1000,12,0,48,0,,,,,224.43788359995233,225.43691879999824,225.4373158199829,226.87040739995427,227.43694129999494,2.4250588890884694,None,1,,,,001,2023-10-31_11h21.29.605,Oddball_task,2022.2.5,60.13764304233678,
standard,soundFiles/1000Hz_-3dBFS_3s_44.1kHz.wav',None,1000,12,1,49,2,,,,,227.43694129999494,228.43631289998302,228.43762831997591,229.63644069997827,230.43708459998015,2.191514994610472,None,1,,,,001,2023-10-31_11h21.29.605,Oddball_task,2022.2.5,60.13764304233678,
standard,soundFiles/1000Hz_-3dBFS_3s_44.1kHz.wav',None,1000,12,2,50,1,,,,,230.43708459998015,231.4373506999691,231.43657712000422,233.87030399998184,233.4534480999573,3.424218325158978,None,1,,,,001,2023-10-31_11h21.29.605,Oddball_task,2022.2.5,60.13764304233678,
target,soundFiles/1200Hz_-3dBFS_3s_44.1kHz.wav',t,2000,12,3,51,3,,,,,233.87030399998184,234.8528537999955,234.8542212199769,236.3531595999957,236.85351629997604,2.47044909123299,t,1,0.6188813000335358,,,001,2023-10-31_11h21.29.605,Oddball_task,2022.2.5,60.13764304233678,
target,soundFiles/1200Hz_-3dBFS_3s_44.1kHz.wav',t,2000,13,0,52,3,,,,,236.85351629997604,237.85343169997213,237.8528900199686,239.13670179998735,239.85390200000256,2.2815599620727176,t,1,1.083367899991572,,,001,2023-10-31_11h21.29.605,Oddball_task,2022.2.5,60.13764304233678,
standard,soundFiles/1000Hz_-3dBFS_3s_44.1kHz.wav',None,1000,13,1,53,2,,,,,239.85390200000256,240.85357159998966,240.85421201996505,242.75501989998156,242.85612269997364,2.8907136272517984,None,1,,241.85395109996898,,001,2023-10-31_11h21.29.605,Oddball_task,2022.2.5,60.13764304233678,
standard,soundFiles/1000Hz_-3dBFS_3s_44.1kHz.wav',None,1000,13,2,54,0,,,,,242.85612269997364,243.85355739999795,243.85422621995676,244.93921859998954,245.85514889995102,2.0763681493623785,None,1,,,,001,2023-10-31_11h21.29.605,Oddball_task,2022.2.5,60.13764304233678,
standard,soundFiles/1000Hz_-3dBFS_3s_44.1kHz.wav',None,1000,13,3,55,1,,,,,245.85514889995102,246.85352509998484,246.85527671998133,249.25494689994957,248.8558614999638,3.3987600877243405,None,1,,,,001,2023-10-31_11h21.29.605,Oddball_task,2022.2.5,60.13764304233678,
standard,soundFiles/1000Hz_-3dBFS_3s_44.1kHz.wav',None,1000,14,0,56,0,,,,,249.25494689994957,250.25400289997924,250.25306561999022,251.95324669999536,252.25339079997502,2.692631085636833,None,1,,251.25406629999634,,001,2023-10-31_11h21.29.605,Oddball_task,2022.2.5,60.13764304233678,
standard,soundFiles/1000Hz_-3dBFS_3s_44.1kHz.wav',None,1000,14,1,57,1,,,,,252.25339079997502,253.254096699995,253.25377311996417,255.48681859998032,255.25432319997344,3.2197263089340105,None,1,,,,001,2023-10-31_11h21.29.605,Oddball_task,2022.2.5,60.13764304233678,
standard,soundFiles/1000Hz_-3dBFS_3s_44.1kHz.wav',None,1000,14,2,58,2,,,,,255.48681859998032,256.4865868999623,256.4873592199525,258.62052289996063,258.48677789996145,3.12441770932789,None,1,,257.488219699997,,001,2023-10-31_11h21.29.605,Oddball_task,2022.2.5,60.13764304233678,
target,soundFiles/1200Hz_-3dBFS_3s_44.1kHz.wav',t,2000,14,3,59,3,,,,,258.62052289996063,259.6223793999525,259.6203401199542,261.5528882999788,261.63709739997284,2.926107207896591,t,1,0.609542699996382,,,001,2023-10-31_11h21.29.605,Oddball_task,2022.2.5,60.13764304233678,
standard,soundFiles/1000Hz_-3dBFS_3s_44.1kHz.wav',None,1000,15,0,60,2,,,,,261.63709739997284,262.63790279999375,262.63683121997167,264.2205398999504,264.6375049999915,2.584138893227304,None,1,,,,001,2023-10-31_11h21.29.605,Oddball_task,2022.2.5,60.13764304233678,
target,soundFiles/1200Hz_-3dBFS_3s_44.1kHz.wav',t,2000,15,1,61,3,,,,,264.6375049999915,265.63865079998504,265.63687701997117,267.88770520000253,267.6379509999533,3.250656909422765,t,1,1.0498551999917254,,,001,2023-10-31_11h21.29.605,Oddball_task,2022.2.5,60.13764304233678,
standard,soundFiles/1000Hz_-3dBFS_3s_44.1kHz.wav',None,1000,15,2,62,1,,,,,267.88770520000253,268.88748629996553,268.8871449199738,270.8703050999902,270.8874801999773,2.9740461847613435,None,1,,,,001,2023-10-31_11h21.29.605,Oddball_task,2022.2.5,60.13764304233678,
standard,soundFiles/1000Hz_-3dBFS_3s_44.1kHz.wav',None,1000,15,3,63,0,,,,,270.8874801999773,271.888485799951,271.889537219971,274.88769760000287,273.90337519999593,3.9897972180903696,None,1,,,,001,2023-10-31_11h21.29.605,Oddball_task,2022.2.5,60.13764304233678,
target,soundFiles/1200Hz_-3dBFS_3s_44.1kHz.wav',t,2000,16,0,64,3,,,,,274.88769760000287,275.8703715999727,275.8712545199902,277.57046759995865,277.871098899981,2.676341018313332,t,1,0.6898858000058681,,,001,2023-10-31_11h21.29.605,Oddball_task,2022.2.5,60.13764304233678,
standard,soundFiles/1000Hz_-3dBFS_3s_44.1kHz.wav',None,1000,16,1,65,0,,,,,277.871098899981,278.8722183999489,278.8701251200051,281.82034649996785,280.8867689999752,3.9398537863532006,None,1,,,,001,2023-10-31_11h21.29.605,Oddball_task,2022.2.5,60.13764304233678,
standard,soundFiles/1000Hz_-3dBFS_3s_44.1kHz.wav',None,1000,16,2,66,1,,,,,281.82034649996785,282.82028879999416,282.82093441995096,284.8217444999609,284.8217444999609,2.9906572716065067,None,1,,,,001,2023-10-31_11h21.29.605,Oddball_task,2022.2.5,60.13764304233678,
standard,soundFiles/1000Hz_-3dBFS_3s_44.1kHz.wav',None,1000,16,3,67,2,,,,,284.8217444999609,285.8052023999626,285.80560741995,287.28890039998805,287.8223123999778,2.4626983065278507,None,1,,,,001,2023-10-31_11h21.29.605,Oddball_task,2022.2.5,60.13764304233678,
standard,soundFiles/1000Hz_-3dBFS_3s_44.1kHz.wav',None,1000,17,0,68,0,,,,,287.8223123999778,288.82092739996733,288.82158261999723,289.92147279996425,290.8204426000011,2.0994836726590083,None,1,,,,001,2023-10-31_11h21.29.605,Oddball_task,2022.2.5,60.13764304233678,
standard,soundFiles/1000Hz_-3dBFS_3s_44.1kHz.wav',None,1000,17,1,69,1,,,,,290.8204426000011,291.8209242000012,291.82108761995335,293.1540724999504,293.8207437999663,2.3213157307678935,None,1,,,,001,2023-10-31_11h21.29.605,Oddball_task,2022.2.5,60.13764304233678,
target,soundFiles/1200Hz_-3dBFS_3s_44.1kHz.wav',t,2000,17,2,70,3,,,,,293.8207437999663,294.8204048000043,294.82100641997533,297.8041702999617,296.82091179996496,3.984477568801319,t,1,0.6368245000485331,,,001,2023-10-31_11h21.29.605,Oddball_task,2022.2.5,60.13764304233678,
standard,soundFiles/1000Hz_-3dBFS_3s_44.1kHz.wav',None,1000,17,3,71,2,,,,,297.8041702999617,298.8042703999672,298.80415402000074,301.1039404000039,300.80464930000016,3.2912994112979517,None,1,,,,001,2023-10-31_11h21.29.605,Oddball_task,2022.2.5,60.13764304233678,
target,soundFiles/1200Hz_-3dBFS_3s_44.1kHz.wav',t,2000,18,0,72,3,,,,,301.1039404000039,302.1046871999861,302.10557091995145,304.8872905999888,304.10446109995246,3.778064865293103,t,1,0.9996204999624752,,,001,2023-10-31_11h21.29.605,Oddball_task,2022.2.5,60.13764304233678,
standard,soundFiles/1000Hz_-3dBFS_3s_44.1kHz.wav',None,1000,18,1,73,0,,,,,304.8872905999888,305.8874239999568,305.88820121998435,308.75368490000255,307.88789349998115,3.8639991935579263,None,1,,306.88701899995795,,001,2023-10-31_11h21.29.605,Oddball_task,2022.2.5,60.13764304233678,
standard,soundFiles/1000Hz_-3dBFS_3s_44.1kHz.wav',None,1000,18,2,74,2,,,,,308.75368490000255,309.7541263999883,309.7533537199721,312.6538644999964,311.7546619999921,3.899553285329058,None,1,,310.75417859997833,,001,2023-10-31_11h21.29.605,Oddball_task,2022.2.5,60.13764304233678,
standard,soundFiles/1000Hz_-3dBFS_3s_44.1kHz.wav',None,1000,18,3,75,1,,,,,312.6538644999964,313.6541188999545,313.65366351996784,314.9708163999603,315.6536336999852,2.301489483876691,None,1,,,,001,2023-10-31_11h21.29.605,Oddball_task,2022.2.5,60.13764304233678,
standard,soundFiles/1000Hz_-3dBFS_3s_44.1kHz.wav',None,1000,19,0,76,1,,,,,315.6536336999852,316.6538486999925,316.6545244200039,319.25449339998886,318.65395829995396,3.5955171369652956,None,1,,,,001,2023-10-31_11h21.29.605,Oddball_task,2022.2.5,60.13764304233678,
standard,soundFiles/1000Hz_-3dBFS_3s_44.1kHz.wav',None,1000,19,1,77,0,,,,,319.25449339998886,320.2375639999518,320.2390826199786,322.7369407999795,322.23839109996334,3.4744042427851864,None,1,,,,001,2023-10-31_11h21.29.605,Oddball_task,2022.2.5,60.13764304233678,
target,soundFiles/1200Hz_-3dBFS_3s_44.1kHz.wav',t,2000,19,2,78,3,,,,,322.7369407999795,323.7373666999629,323.73770661997844,324.9541038000025,325.737263899995,2.2015734298424836,t,1,0.6401868999819271,,,001,2023-10-31_11h21.29.605,Oddball_task,2022.2.5,60.13764304233678,
standard,soundFiles/1000Hz_-3dBFS_3s_44.1kHz.wav',None,1000,19,3,79,2,,,,,325.737263899995,326.73826640000334,326.7371931199683,327.98797679995187,328.7370517999516,2.2451577948893413,None,1,,,,001,2023-10-31_11h21.29.605,Oddball_task,2022.2.5,60.13764304233678,
standard,soundFiles/1000Hz_-3dBFS_3s_44.1kHz.wav',None,1000,20,0,80,1,,,,,328.7370517999516,329.7371445999597,329.73835811999163,331.12036629999056,331.73717479995685,2.383243910089826,None,1,,,,001,2023-10-31_11h21.29.605,Oddball_task,2022.2.5,60.13764304233678,
target,soundFiles/1200Hz_-3dBFS_3s_44.1kHz.wav',t,2000,20,1,81,3,,,,,331.73717479995685,332.73702939995565,332.73848461996533,333.9907145999605,334.737946899957,2.236678728498403,t,1,0.8000496999593452,,,001,2023-10-31_11h21.29.605,Oddball_task,2022.2.5,60.13764304233678,
standard,soundFiles/1000Hz_-3dBFS_3s_44.1kHz.wav',None,1000,20,2,82,2,,,,,334.737946899957,335.73799259995576,335.7373642199906,336.9550434999983,337.73929169995245,2.217303316600237,None,1,,,,001,2023-10-31_11h21.29.605,Oddball_task,2022.2.5,60.13764304233678,
standard,soundFiles/1000Hz_-3dBFS_3s_44.1kHz.wav',None,1000,20,3,83,0,,,,,337.73929169995245,338.7389807999716,338.73835421996193,341.63801269995747,340.7374983999762,3.899788825991724,None,1,,,,001,2023-10-31_11h21.29.605,Oddball_task,2022.2.5,60.13764304233678,
standard,soundFiles/1000Hz_-3dBFS_3s_44.1kHz.wav',None,1000,21,0,84,0,,,,,341.63801269995747,342.63764689996606,342.6377638199716,344.6721672999556,344.63986910000676,3.021820629752791,None,1,,,,001,2023-10-31_11h21.29.605,Oddball_task,2022.2.5,60.13764304233678,
standard,soundFiles/1000Hz_-3dBFS_3s_44.1kHz.wav',None,1000,21,1,85,2,,,,,344.6721672999556,345.6705960999825,345.67184501999293,346.8713262999663,347.671926799987,2.191383339786448,None,1,,,,001,2023-10-31_11h21.29.605,Oddball_task,2022.2.5,60.13764304233678,
target,soundFiles/1200Hz_-3dBFS_3s_44.1kHz.wav',t,2000,21,2,86,3,,,,,347.671926799987,348.67089299997315,348.6713964199531,349.83898949995637,350.6714284999762,2.166967376680338,t,1,0.5789143000147305,,,001,2023-10-31_11h21.29.605,Oddball_task,2022.2.5,60.13764304233678,
standard,soundFiles/1000Hz_-3dBFS_3s_44.1kHz.wav',None,1000,21,3,87,1,,,,,350.6714284999762,351.6729033999727,351.6712570199976,353.9714750999701,353.6881509999512,3.2981416770548275,None,1,,,,001,2023-10-31_11h21.29.605,Oddball_task,2022.2.5,60.13764304233678,
standard,soundFiles/1000Hz_-3dBFS_3s_44.1kHz.wav',None,1000,22,0,88,2,,,,,353.9714750999701,354.97115860000486,354.97069091998276,356.35540469997795,356.97077339998214,2.3789299354402376,None,1,,,,001,2023-10-31_11h21.29.605,Oddball_task,2022.2.5,60.13764304233678,
target,soundFiles/1200Hz_-3dBFS_3s_44.1kHz.wav',t,2000,22,1,89,3,,,,,356.97077339998214,357.9710225999588,357.9723718199763,360.22180719999596,359.97133639996173,3.2413517019803093,t,1,0.8857155000441708,,,001,2023-10-31_11h21.29.605,Oddball_task,2022.2.5,60.13764304233678,
standard,soundFiles/1000Hz_-3dBFS_3s_44.1kHz.wav',None,1000,22,2,90,1,,,,,360.22180719999596,361.22156009997707,361.22154081999327,362.78733669995563,363.2213486999972,2.5643842570429807,None,1,,,,001,2023-10-31_11h21.29.605,Oddball_task,2022.2.5,60.13764304233678,
standard,soundFiles/1000Hz_-3dBFS_3s_44.1kHz.wav',None,1000,22,3,91,0,,,,,363.2213486999972,364.2208730999846,364.2232356199762,365.6541297999793,366.2212719999952,2.4196075960412804,None,1,,,,001,2023-10-31_11h21.29.605,Oddball_task,2022.2.5,60.13764304233678,
standard,soundFiles/1000Hz_-3dBFS_3s_44.1kHz.wav',None,1000,23,0,92,1,,,,,366.2212719999952,367.2212350000045,367.2213467199705,368.37099510000553,369.22090479999315,2.143873812011444,None,1,,368.22082919999957,,001,2023-10-31_11h21.29.605,Oddball_task,2022.2.5,60.13764304233678,
standard,soundFiles/1000Hz_-3dBFS_3s_44.1kHz.wav',None,1000,23,1,93,2,,,,,369.22090479999315,370.2207657999825,370.2217637200025,372.5714961999911,372.221051600005,3.3422169565565,None,1,,,,001,2023-10-31_11h21.29.605,Oddball_task,2022.2.5,60.13764304233678,
standard,soundFiles/1000Hz_-3dBFS_3s_44.1kHz.wav',None,1000,23,2,94,0,,,,,372.5714961999911,373.5558762999717,373.55631561998746,376.4550169999711,375.5714233999606,3.8777769990492432,None,1,,,,001,2023-10-31_11h21.29.605,Oddball_task,2022.2.5,60.13764304233678,
target,soundFiles/1200Hz_-3dBFS_3s_44.1kHz.wav',t,2000,23,3,95,3,,,,,376.4550169999711,377.455638799991,377.4542317199754,380.4051513999584,379.47107969998615,3.9447298644208297,t,1,0.56161209999118,,,001,2023-10-31_11h21.29.605,Oddball_task,2022.2.5,60.13764304233678,
target,soundFiles/1200Hz_-3dBFS_3s_44.1kHz.wav',t,2000,24,0,96,3,,,,,380.4051513999584,381.38736729999073,381.3904696199694,384.0542598000029,383.3880534999771,3.6344446610711816,t,1,0.790199700044468,,,001,2023-10-31_11h21.29.605,Oddball_task,2022.2.5,60.13764304233678,
standard,soundFiles/1000Hz_-3dBFS_3s_44.1kHz.wav',None,1000,24,1,97,0,,,,,384.0542598000029,385.0540620999527,385.0551844199887,386.77196879999246,387.0543467999669,2.714285190729743,None,1,,,,001,2023-10-31_11h21.29.605,Oddball_task,2022.2.5,60.13764304233678,
standard,soundFiles/1000Hz_-3dBFS_3s_44.1kHz.wav',None,1000,24,2,98,1,,,,,387.0543467999669,388.0550212999806,388.05478651998567,390.2053023999906,390.05425559997093,3.149007298748508,None,1,,389.0540820999886,,001,2023-10-31_11h21.29.605,Oddball_task,2022.2.5,60.13764304233678,
standard,soundFiles/1000Hz_-3dBFS_3s_44.1kHz.wav',None,1000,24,3,99,2,,,,,390.2053023999906,391.20515169994906,391.2044378199731,394.1407568999566,393.2050266999868,3.9228222695429666,None,1,,,,001,2023-10-31_11h21.29.605,Oddball_task,2022.2.5,60.13764304233678,
standard,soundFiles/1000Hz_-3dBFS_3s_44.1kHz.wav',None,1000,25,0,100,0,,,,,394.1407568999566,395.138427399972,395.13736531996403,396.33824620000087,397.1376100999769,2.1927949658978725,None,1,,,,001,2023-10-31_11h21.29.605,Oddball_task,2022.2.5,60.13764304233678,
standard,soundFiles/1000Hz_-3dBFS_3s_44.1kHz.wav',None,1000,25,1,101,1,,,,,397.1376100999769,398.1382439999725,398.1377613199526,399.32171519997064,400.1390228999662,2.1716276646558637,None,1,,,,001,2023-10-31_11h21.29.605,Oddball_task,2022.2.5,60.13764304233678,
standard,soundFiles/1000Hz_-3dBFS_3s_44.1kHz.wav',None,1000,25,2,102,2,,,,,400.1390228999662,401.13845589995617,401.1382849199814,403.9217764000059,403.15475109999534,3.7802033670370667,None,1,,,,001,2023-10-31_11h21.29.605,Oddball_task,2022.2.5,60.13764304233678,
target,soundFiles/1200Hz_-3dBFS_3s_44.1kHz.wav',t,2000,25,3,103,3,,,,,403.9217764000059,404.9052739999606,404.90538891995095,406.67249679996166,406.9044225999969,2.7416186722530416,t,1,0.7201797000016086,,,001,2023-10-31_11h21.29.605,Oddball_task,2022.2.5,60.13764304233678,
standard,soundFiles/1000Hz_-3dBFS_3s_44.1kHz.wav',None,1000,26,0,104,0,,,,,406.9044225999969,407.905145799974,407.9053657200071,410.0557838999666,409.9043726999662,3.135319432252647,None,1,,,,001,2023-10-31_11h21.29.605,Oddball_task,2022.2.5,60.13764304233678,
target,soundFiles/1200Hz_-3dBFS_3s_44.1kHz.wav',t,2000,26,1,105,3,,,,,410.0557838999666,411.05431579996366,411.054503719986,413.17163529997924,413.0553215999971,3.1051600835483795,t,1,0.8120886000106111,,,001,2023-10-31_11h21.29.605,Oddball_task,2022.2.5,60.13764304233678,
standard,soundFiles/1000Hz_-3dBFS_3s_44.1kHz.wav',None,1000,26,2,106,1,,,,,413.17163529997924,414.1717277999851,414.1719926199527,417.08923919999506,416.17144179996103,3.9143028414680163,None,1,,,,001,2023-10-31_11h21.29.605,Oddball_task,2022.2.5,60.13764304233678,
standard,soundFiles/1000Hz_-3dBFS_3s_44.1kHz.wav',None,1000,26,3,107,2,,,,,417.08923919999506,418.07089529995574,418.07254682000496,419.4722905999515,420.0719141999725,2.3748617100100846,None,1,,,,001,2023-10-31_11h21.29.605,Oddball_task,2022.2.5,60.13764304233678,
target,soundFiles/1200Hz_-3dBFS_3s_44.1kHz.wav',t,2000,27,0,108,3,,,,,420.0719141999725,421.07229419995565,421.07210881998765,423.5892597999773,423.07123079994926,3.513728753233674,t,1,0.6171775000402704,,,001,2023-10-31_11h21.29.605,Oddball_task,2022.2.5,60.13764304233678,
standard,soundFiles/1000Hz_-3dBFS_3s_44.1kHz.wav',None,1000,27,1,109,2,,,,,423.5892597999773,424.5890026999987,424.5883391199983,427.3720095999888,426.5889426000067,3.7742316820132062,None,1,,,,001,2023-10-31_11h21.29.605,Oddball_task,2022.2.5,60.13764304233678,
standard,soundFiles/1000Hz_-3dBFS_3s_44.1kHz.wav',None,1000,27,2,110,1,,,,,427.3720095999888,428.3719880999997,428.37208131999944,430.08812489995034,430.3714711999637,2.7077384830362137,None,1,,,,001,2023-10-31_11h21.29.605,Oddball_task,2022.2.5,60.13764304233678,
standard,soundFiles/1000Hz_-3dBFS_3s_44.1kHz.wav',None,1000,27,3,111,0,,,,,430.3714711999637,431.372490299982,431.3718873199774,433.6390586000052,433.37147579999873,3.2665765980571306,None,1,,,,001,2023-10-31_11h21.29.605,Oddball_task,2022.2.5,60.13764304233678,
target,soundFiles/1200Hz_-3dBFS_3s_44.1kHz.wav',t,2000,28,0,112,3,,,,,433.6390586000052,434.6389574999921,434.6379092199728,436.50533319998067,436.64089439995587,2.8600809606371413,t,1,0.7466330999741331,,,001,2023-10-31_11h21.29.605,Oddball_task,2022.2.5,60.13764304233678,
standard,soundFiles/1000Hz_-3dBFS_3s_44.1kHz.wav',None,1000,28,1,113,0,,,,,436.64089439995587,437.63846109999577,437.6385509199696,440.5899732999969,439.6388630999718,3.9405317571903087,None,1,,,,001,2023-10-31_11h21.29.605,Oddball_task,2022.2.5,60.13764304233678,
standard,soundFiles/1000Hz_-3dBFS_3s_44.1kHz.wav',None,1000,28,2,114,1,,,,,440.5899732999969,441.5882530999952,441.5889632199775,442.7048977999948,443.5881790999556,2.1046989213845797,None,1,,,,001,2023-10-31_11h21.29.605,Oddball_task,2022.2.5,60.13764304233678,
standard,soundFiles/1000Hz_-3dBFS_3s_44.1kHz.wav',None,1000,28,3,115,2,,,,,443.5881790999556,444.5879253000021,444.588794719975,446.2223540999694,446.58909699996,2.6319893306619404,None,1,,,,001,2023-10-31_11h21.29.605,Oddball_task,2022.2.5,60.13764304233678,
target,soundFiles/1200Hz_-3dBFS_3s_44.1kHz.wav',t,2000,29,0,116,3,,,,,446.58909699996,447.5885247999686,447.58892862000505,450.0719026000006,449.5882424999727,3.4813546509533397,t,1,0.6617587000364438,448.5882243999513,,001,2023-10-31_11h21.29.605,Oddball_task,2022.2.5,60.13764304233678,
standard,soundFiles/1000Hz_-3dBFS_3s_44.1kHz.wav',None,1000,29,1,117,1,,,,,450.0719026000006,451.07203260000097,451.0722041199566,453.6882968999562,453.0724678999977,3.613294009304121,None,1,,,,001,2023-10-31_11h21.29.605,Oddball_task,2022.2.5,60.13764304233678,
standard,soundFiles/1000Hz_-3dBFS_3s_44.1kHz.wav',None,1000,29,2,118,0,,,,,453.6882968999562,454.68888819997665,454.6885280199582,457.6883190999506,456.6883377999766,3.995300347469769,None,1,,,,001,2023-10-31_11h21.29.605,Oddball_task,2022.2.5,60.13764304233678,
standard,soundFiles/1000Hz_-3dBFS_3s_44.1kHz.wav',None,1000,29,3,119,2,,,,,457.6883190999506,458.6883871000027,458.68828831999565,460.19000869995216,460.688974699995,2.49635253105263,None,1,,,,001,2023-10-31_11h21.29.605,Oddball_task,2022.2.5,60.13764304233678,
standard,soundFiles/1000Hz_-3dBFS_3s_44.1kHz.wav',None,1000,30,0,120,1,,,,,460.688974699995,461.688064499991,461.6887052199687,463.67221900000004,463.68859189999057,2.979386987489695,None,1,,,,001,2023-10-31_11h21.29.605,Oddball_task,2022.2.5,60.13764304233678,
target,soundFiles/1200Hz_-3dBFS_3s_44.1kHz.wav',t,2000,30,1,121,3,,,,,463.68859189999057,464.6882375999703,464.6887865200057,466.8711542999954,466.6884758999804,3.1722156872675047,t,1,0.633549900026992,,,001,2023-10-31_11h21.29.605,Oddball_task,2022.2.5,60.13764304233678,
standard,soundFiles/1000Hz_-3dBFS_3s_44.1kHz.wav',None,1000,30,2,122,0,,,,,466.8711542999954,467.8721099999966,467.8725411199499,470.5557351000025,469.8741719999816,3.6744076647758304,None,1,,,,001,2023-10-31_11h21.29.605,Oddball_task,2022.2.5,60.13764304233678,
standard,soundFiles/1000Hz_-3dBFS_3s_44.1kHz.wav',None,1000,30,3,123,2,,,,,470.5557351000025,471.5553107999731,471.5548148199683,473.289549899986,473.5566607999499,2.7292322002394798,None,1,,,,001,2023-10-31_11h21.29.605,Oddball_task,2022.2.5,60.13764304233678,
standard,soundFiles/1000Hz_-3dBFS_3s_44.1kHz.wav',None,1000,31,0,124,2,,,,,473.5566607999499,474.5555645999848,474.5547200200032,476.17140679998556,476.5556970000034,2.6152475348919744,None,1,,,,001,2023-10-31_11h21.29.605,Oddball_task,2022.2.5,60.13764304233678,
standard,soundFiles/1000Hz_-3dBFS_3s_44.1kHz.wav',None,1000,31,1,125,1,,,,,476.5556970000034,477.5395801999839,477.5393202199717,478.7565364000038,479.5381742999889,2.1849007320314717,None,1,,,,001,2023-10-31_11h21.29.605,Oddball_task,2022.2.5,60.13764304233678,
standard,soundFiles/1000Hz_-3dBFS_3s_44.1kHz.wav',None,1000,31,2,126,0,,,,,479.5381742999889,480.53931099997135,480.53946841999425,482.7223646999919,482.53838759998325,3.18453686140477,None,1,,,,001,2023-10-31_11h21.29.605,Oddball_task,2022.2.5,60.13764304233678,
target,soundFiles/1200Hz_-3dBFS_3s_44.1kHz.wav',t,2000,31,3,127,3,,,,,482.7223646999919,483.72272729995893,483.7223815199919,486.20576260000234,485.7222802999895,3.483954214083914,t,1,0.5914177999948151,,,001,2023-10-31_11h21.29.605,Oddball_task,2022.2.5,60.13764304233678,
standard,soundFiles/1000Hz_-3dBFS_3s_44.1kHz.wav',None,1000,32,0,128,2,,,,,486.20576260000234,487.20801349997055,487.20773701994915,489.63923969998723,489.22163029998774,3.431418324860716,None,1,,,,001,2023-10-31_11h21.29.605,Oddball_task,2022.2.5,60.13764304233678,
target,soundFiles/1200Hz_-3dBFS_3s_44.1kHz.wav',t,2000,32,1,129,3,,,,,489.63923969998723,490.6399903999991,490.6388756199973,492.7557837999775,492.6552351999562,3.1033390880855296,t,1,0.754851600038819,,,001,2023-10-31_11h21.29.605,Oddball_task,2022.2.5,60.13764304233678,
standard,soundFiles/1000Hz_-3dBFS_3s_44.1kHz.wav',None,1000,32,2,130,1,,,,,492.7557837999775,493.75741809996543,493.75712221997094,496.1220307999756,495.7720089999493,3.3580816545509826,None,1,,,,001,2023-10-31_11h21.29.605,Oddball_task,2022.2.5,60.13764304233678,
standard,soundFiles/1000Hz_-3dBFS_3s_44.1kHz.wav',None,1000,32,3,131,0,,,,,496.1220307999756,497.12171459995443,497.12207191998607,499.87180739996256,499.12220250000246,3.7516096983671687,None,1,,,,001,2023-10-31_11h21.29.605,Oddball_task,2022.2.5,60.13764304233678,
standard,soundFiles/1000Hz_-3dBFS_3s_44.1kHz.wav',None,1000,33,0,132,2,,,,,499.87180739996256,500.8721110000042,500.8721505200025,503.82239739998477,502.8726064999937,3.941914135124792,None,1,,,,001,2023-10-31_11h21.29.605,Oddball_task,2022.2.5,60.13764304233678,
standard,soundFiles/1000Hz_-3dBFS_3s_44.1kHz.wav',None,1000,33,1,133,1,,,,,503.82239739998477,504.8218891999568,504.82229251998945,506.07426099997247,506.8225809999858,2.2428289334531253,None,1,,,,001,2023-10-31_11h21.29.605,Oddball_task,2022.2.5,60.13764304233678,
target,soundFiles/1200Hz_-3dBFS_3s_44.1kHz.wav',t,2000,33,2,134,3,,,,,506.8225809999858,507.82220749999397,507.82231241996635,510.489613099955,509.8224314999534,3.6662106974753295,t,1,0.651904399972409,,,001,2023-10-31_11h21.29.605,Oddball_task,2022.2.5,60.13764304233678,
standard,soundFiles/1000Hz_-3dBFS_3s_44.1kHz.wav',None,1000,33,3,135,0,,,,,510.489613099955,511.48847539996495,511.48962611998434,513.3903420999995,513.4885012999875,2.897102515075792,None,1,,,,001,2023-10-31_11h21.29.605,Oddball_task,2022.2.5,60.13764304233678,
standard,soundFiles/1000Hz_-3dBFS_3s_44.1kHz.wav',None,1000,34,0,136,1,,,,,513.4885012999875,514.4888356999727,514.4905626199558,516.5724569999729,516.4888375999872,3.0712861281772392,None,1,,,,001,2023-10-31_11h21.29.605,Oddball_task,2022.2.5,60.13764304233678,
standard,soundFiles/1000Hz_-3dBFS_3s_44.1kHz.wav',None,1000,34,1,137,0,,,,,516.5724569999729,517.5724915000028,517.5719169199816,519.7893999999505,519.5725983000011,3.2156108744158436,None,1,,,,001,2023-10-31_11h21.29.605,Oddball_task,2022.2.5,60.13764304233678,
standard,soundFiles/1000Hz_-3dBFS_3s_44.1kHz.wav',None,1000,34,2,138,2,,,,,519.7893999999505,520.7742044999613,520.7750974199968,522.6062488000025,522.7893914000015,2.810371986105668,None,1,,,,001,2023-10-31_11h21.29.605,Oddball_task,2022.2.5,60.13764304233678,
target,soundFiles/1200Hz_-3dBFS_3s_44.1kHz.wav',t,2000,34,3,139,3,,,,,522.7893914000015,523.773652200005,523.7738440199988,526.6058180999826,525.7889175000018,3.8059480763853726,t,1,0.6206537000252865,,,001,2023-10-31_11h21.29.605,Oddball_task,2022.2.5,60.13764304233678,
target,soundFiles/1200Hz_-3dBFS_3s_44.1kHz.wav',t,2000,35,0,140,3,,,,,526.6058180999826,527.6062707999954,527.6061332199839,528.8740332999732,529.605727599992,2.2684756848480285,t,1,1.2041942999931052,,,001,2023-10-31_11h21.29.605,Oddball_task,2022.2.5,60.13764304233678,
standard,soundFiles/1000Hz_-3dBFS_3s_44.1kHz.wav',None,1000,35,1,141,2,,,,,529.605727599992,530.6061743999599,530.6061026199837,532.3558767999639,532.6060479999869,2.7488700410907705,None,1,,,,001,2023-10-31_11h21.29.605,Oddball_task,2022.2.5,60.13764304233678,
standard,soundFiles/1000Hz_-3dBFS_3s_44.1kHz.wav',None,1000,35,2,142,0,,,,,532.6060479999869,533.6062079999829,533.6057085199515,535.805805699958,535.6061394999851,3.1923039139994707,None,1,,,,001,2023-10-31_11h21.29.605,Oddball_task,2022.2.5,60.13764304233678,
standard,soundFiles/1000Hz_-3dBFS_3s_44.1kHz.wav',None,1000,35,3,143,1,,,,,535.805805699958,536.7899308999768,536.7899605199578,539.7557742999634,538.7889544999925,3.947932097402715,None,1,,,,001,2023-10-31_11h21.29.605,Oddball_task,2022.2.5,60.13764304233678,
standard,soundFiles/1000Hz_-3dBFS_3s_44.1kHz.wav',None,1000,36,0,144,2,,,,,539.7557742999634,540.7561363999848,540.7564577199752,542.9737835999695,542.7570734999608,3.206844356531978,None,1,,541.7568789999932,,001,2023-10-31_11h21.29.605,Oddball_task,2022.2.5,60.13764304233678,
standard,soundFiles/1000Hz_-3dBFS_3s_44.1kHz.wav',None,1000,36,1,145,1,,,,,542.9737835999695,543.9751066999743,543.9735168199637,545.9559309000033,545.9890243999544,2.9660762135506182,None,1,,,,001,2023-10-31_11h21.29.605,Oddball_task,2022.2.5,60.13764304233678,
standard,soundFiles/1000Hz_-3dBFS_3s_44.1kHz.wav',None,1000,36,2,146,0,,,,,545.9890243999544,546.990175199986,546.990037419973,548.7554028999875,548.9887083999929,2.762493064153147,None,1,,,,001,2023-10-31_11h21.29.605,Oddball_task,2022.2.5,60.13764304233678,
target,soundFiles/1200Hz_-3dBFS_3s_44.1kHz.wav',t,2000,36,3,147,3,,,,,548.9887083999929,549.988896899973,549.9888802199508,552.0570162999793,551.9888878999627,3.0553075634751297,t,1,0.5900782999815419,550.989067699993,,001,2023-10-31_11h21.29.605,Oddball_task,2022.2.5,60.13764304233678,
standard,soundFiles/1000Hz_-3dBFS_3s_44.1kHz.wav',None,1000,37,0,148,2,,,,,552.0570162999793,553.0556543999701,553.0567093199585,554.2230587999802,555.0554985000053,2.1647823401187076,None,1,,,,001,2023-10-31_11h21.29.605,Oddball_task,2022.2.5,60.13764304233678,
standard,soundFiles/1000Hz_-3dBFS_3s_44.1kHz.wav',None,1000,37,1,149,1,,,,,555.0554985000053,556.0553703999612,556.0568008199567,557.3895931000006,558.0560544999898,2.3296271751289064,None,1,,,,001,2023-10-31_11h21.29.605,Oddball_task,2022.2.5,60.13764304233678,
target,soundFiles/1200Hz_-3dBFS_3s_44.1kHz.wav',t,2000,37,2,150,3,,,,,558.0560544999898,559.0558538999758,559.0562267199508,561.8230857999879,561.0561024000053,3.754167194719086,t,1,0.6666941000148654,560.0552624999546,,001,2023-10-31_11h21.29.605,Oddball_task,2022.2.5,60.13764304233678,
standard,soundFiles/1000Hz_-3dBFS_3s_44.1kHz.wav',None,1000,37,3,151,0,,,,,561.8230857999879,562.8226528999512,562.8217599199503,564.439587300003,564.8228450999595,2.610485298688739,None,1,,,,001,2023-10-31_11h21.29.605,Oddball_task,2022.2.5,60.13764304233678,
standard,soundFiles/1000Hz_-3dBFS_3s_44.1kHz.wav',None,1000,38,0,152,2,,,,,564.8228450999595,565.8228475999786,565.8222271199571,567.6891108999844,567.8228412999888,2.8513828632930363,None,1,,,,001,2023-10-31_11h21.29.605,Oddball_task,2022.2.5,60.13764304233678,
standard,soundFiles/1000Hz_-3dBFS_3s_44.1kHz.wav',None,1000,38,1,153,0,,,,,567.8228412999888,568.8229374999646,568.8220156199765,571.7397424999508,570.8224437999888,3.9042940214508057,None,1,,,,001,2023-10-31_11h21.29.605,Oddball_task,2022.2.5,60.13764304233678,
target,soundFiles/1200Hz_-3dBFS_3s_44.1kHz.wav',t,2000,38,2,154,3,,,,,571.7397424999508,572.739771499997,572.7388464199845,575.6229292000062,574.7419874999905,3.8808043593607398,t,1,0.6388959999894723,,,001,2023-10-31_11h21.29.605,Oddball_task,2022.2.5,60.13764304233678,
standard,soundFiles/1000Hz_-3dBFS_3s_44.1kHz.wav',None,1000,38,3,155,1,,,,,575.6229292000062,576.6234473999939,576.6225909199799,577.7729324999964,578.6413236999651,2.1366835957582566,None,1,,577.623893299955,,001,2023-10-31_11h21.29.605,Oddball_task,2022.2.5,60.13764304233678,
standard,soundFiles/1000Hz_-3dBFS_3s_44.1kHz.wav',None,1000,39,0,156,1,,,,,578.6413236999651,579.6400014999672,579.6400287199882,581.1565043999581,581.6395781000028,2.508601160967043,None,1,,580.6393448999734,,001,2023-10-31_11h21.29.605,Oddball_task,2022.2.5,60.13764304233678,
standard,soundFiles/1000Hz_-3dBFS_3s_44.1kHz.wav',None,1000,39,1,157,2,,,,,581.6395781000028,582.6400263999822,582.640141519974,584.8891650000005,584.641437299957,3.2461622049261356,None,1,,,,001,2023-10-31_11h21.29.605,Oddball_task,2022.2.5,60.13764304233678,
standard,soundFiles/1000Hz_-3dBFS_3s_44.1kHz.wav',None,1000,39,2,158,0,,,,,584.8891650000005,585.889056199987,585.8896240199916,587.3891787999892,587.8899683000054,2.495131463319197,None,1,,,,001,2023-10-31_11h21.29.605,Oddball_task,2022.2.5,60.13764304233678,
target,soundFiles/1200Hz_-3dBFS_3s_44.1kHz.wav',t,2000,39,3,159,3,,,,,587.8899683000054,588.8893685999792,588.8898349199677,590.6390829999582,590.8899157999549,2.7446796502772273,t,1,0.8089364999905229,,,001,2023-10-31_11h21.29.605,Oddball_task,2022.2.5,60.13764304233678,
target,soundFiles/1200Hz_-3dBFS_3s_44.1kHz.wav',t,2000,40,0,160,3,,,,,590.8899157999549,591.8888891999959,591.8903050199966,593.1569244999555,593.8899056999944,2.2569516517666335,None,0,,,,001,2023-10-31_11h21.29.605,Oddball_task,2022.2.5,60.13764304233678,
standard,soundFiles/1000Hz_-3dBFS_3s_44.1kHz.wav',None,1000,40,1,161,1,,,,,593.8899056999944,594.8890365999541,594.8900757199968,597.1905473999796,596.88948969997,3.2848202664890147,None,1,,,,001,2023-10-31_11h21.29.605,Oddball_task,2022.2.5,60.13764304233678,
standard,soundFiles/1000Hz_-3dBFS_3s_44.1kHz.wav',None,1000,40,2,162,2,,,,,597.1905473999796,598.1912072999985,598.1919566199882,600.706786499999,600.1896492999513,3.515270962022634,None,1,,,,001,2023-10-31_11h21.29.605,Oddball_task,2022.2.5,60.13764304233678,
standard,soundFiles/1000Hz_-3dBFS_3s_44.1kHz.wav',None,1000,40,3,163,0,,,,,600.706786499999,601.6904099999811,601.6902813199791,603.1577148999786,603.6904243999743,2.4488871277618043,None,1,,,,001,2023-10-31_11h21.29.605,Oddball_task,2022.2.5,60.13764304233678,
target,soundFiles/1200Hz_-3dBFS_3s_44.1kHz.wav',t,2000,41,0,164,3,,,,,603.6904243999743,604.6899592999835,604.6902672199882,606.6247238999931,606.6904497999931,2.92767765653642,t,1,0.6731068000080995,,,001,2023-10-31_11h21.29.605,Oddball_task,2022.2.5,60.13764304233678,
standard,soundFiles/1000Hz_-3dBFS_3s_44.1kHz.wav',None,1000,41,1,165,1,,,,,606.6904497999931,607.6900607999996,607.6899562200066,609.2567373999627,609.6898473000037,2.552887221372602,None,1,,,,001,2023-10-31_11h21.29.605,Oddball_task,2022.2.5,60.13764304233678,
standard,soundFiles/1000Hz_-3dBFS_3s_44.1kHz.wav',None,1000,41,2,166,2,,,,,609.6898473000037,610.6903429999948,610.69053632,611.9067939999513,612.7063838999602,2.210376253897117,None,1,,,,001,2023-10-31_11h21.29.605,Oddball_task,2022.2.5,60.13764304233678,
standard,soundFiles/1000Hz_-3dBFS_3s_44.1kHz.wav',None,1000,41,3,167,0,,,,,612.7063838999602,613.7066010999843,613.7064028199762,616.0394454000052,615.7065434999531,3.3303673361741435,None,1,,,,001,2023-10-31_11h21.29.605,Oddball_task,2022.2.5,60.13764304233678,
standard,soundFiles/1000Hz_-3dBFS_3s_44.1kHz.wav',None,1000,42,0,168,1,,,,,616.0394454000052,617.0397861999809,617.0395428199787,618.1562767999712,619.0402866999502,2.1117481240078653,None,1,,,,001,2023-10-31_11h21.29.605,Oddball_task,2022.2.5,60.13764304233678,
standard,soundFiles/1000Hz_-3dBFS_3s_44.1kHz.wav',None,1000,42,1,169,0,,,,,619.0402866999502,620.0402353999671,620.0400414199918,622.7734953999752,622.0394786999677,3.7211906375042108,None,1,,,,001,2023-10-31_11h21.29.605,Oddball_task,2022.2.5,60.13764304233678,
standard,soundFiles/1000Hz_-3dBFS_3s_44.1kHz.wav',None,1000,42,2,170,2,,,,,622.7734953999752,623.7728302999749,623.7725842199521,625.6729282999877,625.773353800003,2.884498757326833,None,1,,,,001,2023-10-31_11h21.29.605,Oddball_task,2022.2.5,60.13764304233678,
target,soundFiles/1200Hz_-3dBFS_3s_44.1kHz.wav',t,2000,42,3,171,3,,,,,625.773353800003,626.773014699982,626.7725685200072,628.906661999994,628.7738967000041,3.1237124496977717,t,1,0.6456916999886744,,,001,2023-10-31_11h21.29.605,Oddball_task,2022.2.5,60.13764304233678,
standard,soundFiles/1000Hz_-3dBFS_3s_44.1kHz.wav',None,1000,43,0,172,2,,,,,628.906661999994,629.9064426999539,629.9071381199989,632.3898466999526,631.9062489999924,3.4756168349775836,None,1,,630.9057669999893,,001,2023-10-31_11h21.29.605,Oddball_task,2022.2.5,60.13764304233678,
standard,soundFiles/1000Hz_-3dBFS_3s_44.1kHz.wav',None,1000,43,1,173,1,,,,,632.3898466999526,633.391030800005,633.3922822199762,635.5061414999655,635.389866499987,3.1092430545537675,None,1,,,,001,2023-10-31_11h21.29.605,Oddball_task,2022.2.5,60.13764304233678,
standard,soundFiles/1000Hz_-3dBFS_3s_44.1kHz.wav',None,1000,43,2,174,0,,,,,635.5061414999655,636.5073200999759,636.5069965200033,637.8096318999887,638.5070442999713,2.2916816298260803,None,1,,,,001,2023-10-31_11h21.29.605,Oddball_task,2022.2.5,60.13764304233678,
target,soundFiles/1200Hz_-3dBFS_3s_44.1kHz.wav',t,2000,43,3,175,3,,,,,638.5070442999713,639.5070865000016,639.5065765200067,641.440249199979,641.5080591999576,2.9270400487974477,t,1,0.6081674000015482,,,001,2023-10-31_11h21.29.605,Oddball_task,2022.2.5,60.13764304233678,
standard,soundFiles/1000Hz_-3dBFS_3s_44.1kHz.wav',None,1000,44,0,176,0,,,,,641.5080591999576,642.508691199997,642.5065974199912,643.7062568999827,644.522827299952,2.197358531962624,None,1,,,,001,2023-10-31_11h21.29.605,Oddball_task,2022.2.5,60.13764304233678,
standard,soundFiles/1000Hz_-3dBFS_3s_44.1kHz.wav',None,1000,44,1,177,2,,,,,644.522827299952,645.5225799999898,645.5237010199577,648.5082760999794,647.5234783999622,3.973656055285569,None,1,,,,001,2023-10-31_11h21.29.605,Oddball_task,2022.2.5,60.13764304233678,
target,soundFiles/1200Hz_-3dBFS_3s_44.1kHz.wav',t,2000,44,2,178,3,,,,,648.5082760999794,649.5066366999527,649.5061718199519,650.723490000004,651.5071257999516,2.2063702523806343,t,1,0.7766630999976769,,,001,2023-10-31_11h21.29.605,Oddball_task,2022.2.5,60.13764304233678,
standard,soundFiles/1000Hz_-3dBFS_3s_44.1kHz.wav',None,1000,44,3,179,1,,,,,651.5071257999516,652.5079669999541,652.50631681995,655.4749792999937,654.5071424999624,3.9522514698786946,None,1,,,,001,2023-10-31_11h21.29.605,Oddball_task,2022.2.5,60.13764304233678,
standard,soundFiles/1000Hz_-3dBFS_3s_44.1kHz.wav',None,1000,45,0,180,0,,,,,655.4749792999937,656.4563455999596,656.4575439199922,657.8897340999683,658.4572954999749,2.4130858661921906,None,1,,,,001,2023-10-31_11h21.29.605,Oddball_task,2022.2.5,60.13764304233678,
target,soundFiles/1200Hz_-3dBFS_3s_44.1kHz.wav',t,2000,45,1,181,3,,,,,658.4572954999749,659.4559672999894,659.4570237199893,662.2237266000011,661.4569383999915,3.762352829200055,t,1,0.6353845000267029,,,001,2023-10-31_11h21.29.605,Oddball_task,2022.2.5,60.13764304233678,
standard,soundFiles/1000Hz_-3dBFS_3s_44.1kHz.wav',None,1000,45,2,182,2,,,,,662.2237266000011,663.2237479999894,663.2231454199879,664.8764498999808,665.223819399951,2.6485620249126876,None,1,,,,001,2023-10-31_11h21.29.605,Oddball_task,2022.2.5,60.13764304233678,
standard,soundFiles/1000Hz_-3dBFS_3s_44.1kHz.wav',None,1000,45,3,183,1,,,,,665.223819399951,666.2236915999674,666.2231745199766,669.1066525999922,668.2251666999655,3.876278014404118,None,1,,,,001,2023-10-31_11h21.29.605,Oddball_task,2022.2.5,60.13764304233678,
target,soundFiles/1200Hz_-3dBFS_3s_44.1kHz.wav',t,2000,46,0,184,3,,,,,669.1066525999922,670.1065745999804,670.1070590199903,672.1728319999529,672.1069380999543,3.065024386664617,t,1,0.6406234000460245,671.1069819999975,,001,2023-10-31_11h21.29.605,Oddball_task,2022.2.5,60.13764304233678,
standard,soundFiles/1000Hz_-3dBFS_3s_44.1kHz.wav',None,1000,46,1,185,0,,,,,672.1728319999529,673.1728165999521,673.1738986199722,674.741145899985,675.1737349999603,2.559128167605259,None,1,,,,001,2023-10-31_11h21.29.605,Oddball_task,2022.2.5,60.13764304233678,
standard,soundFiles/1000Hz_-3dBFS_3s_44.1kHz.wav',None,1000,46,2,186,1,,,,,675.1737349999603,676.1730920999544,676.1740774199949,678.2237900999608,678.1728751999908,3.0364840259689627,t,0,1.2543440000154078,,,001,2023-10-31_11h21.29.605,Oddball_task,2022.2.5,60.13764304233678,
standard,soundFiles/1000Hz_-3dBFS_3s_44.1kHz.wav',None,1000,46,3,187,2,,,,,678.2237900999608,679.224058999971,679.2229854199919,680.9565608999692,681.2242910999921,2.7272495639086545,None,1,,,,001,2023-10-31_11h21.29.605,Oddball_task,2022.2.5,60.13764304233678,
target,soundFiles/1200Hz_-3dBFS_3s_44.1kHz.wav',t,2000,47,0,188,3,,,,,681.2242910999921,682.2067897999659,682.2081983199693,684.6402281000046,684.2073486999725,3.4076927268113435,t,1,0.7646078999969177,,,001,2023-10-31_11h21.29.605,Oddball_task,2022.2.5,60.13764304233678,
standard,soundFiles/1000Hz_-3dBFS_3s_44.1kHz.wav',None,1000,47,1,189,2,,,,,684.6402281000046,685.640149599989,685.6399117199704,688.0753705999814,687.6408986999886,3.42911060386813,None,1,,,,001,2023-10-31_11h21.29.605,Oddball_task,2022.2.5,60.13764304233678,
standard,soundFiles/1000Hz_-3dBFS_3s_44.1kHz.wav',None,1000,47,2,190,1,,,,,688.0753705999814,689.073092799983,689.074044720002,690.890222499962,691.0737056999933,2.8036536507019747,None,1,,,,001,2023-10-31_11h21.29.605,Oddball_task,2022.2.5,60.13764304233678,
standard,soundFiles/1000Hz_-3dBFS_3s_44.1kHz.wav',None,1000,47,3,191,0,,,,,691.0737056999933,692.0727306999615,692.0740008199588,694.5912127000047,694.0758956999634,3.5164487727547598,None,1,,,,001,2023-10-31_11h21.29.605,Oddball_task,2022.2.5,60.13764304233678,
standard,soundFiles/1000Hz_-3dBFS_3s_44.1kHz.wav',None,1000,48,0,192,0,,,,,694.5912127000047,695.5905428999686,695.5910769200069,698.4072999999626,697.5902725000051,3.815604888444186,None,1,,,,001,2023-10-31_11h21.29.605,Oddball_task,2022.2.5,60.13764304233678,
target,soundFiles/1200Hz_-3dBFS_3s_44.1kHz.wav',t,2000,48,1,193,3,,,,,698.4072999999626,699.3900130999973,699.3902387199574,700.5737269999809,701.390774999978,2.153632472374789,t,1,0.8298048000433482,,,001,2023-10-31_11h21.29.605,Oddball_task,2022.2.5,60.13764304233678,
standard,soundFiles/1000Hz_-3dBFS_3s_44.1kHz.wav',None,1000,48,2,194,1,,,,,701.390774999978,702.391288999992,702.3899277199758,703.6079741999856,704.4080164000043,2.20602489292346,None,1,,,,001,2023-10-31_11h21.29.605,Oddball_task,2022.2.5,60.13764304233678,
standard,soundFiles/1000Hz_-3dBFS_3s_44.1kHz.wav',None,1000,48,3,195,2,,,,,704.4080164000043,705.4065508999629,705.4075999199646,707.7239610999823,707.4068463000003,3.309490206587499,None,1,,,,001,2023-10-31_11h21.29.605,Oddball_task,2022.2.5,60.13764304233678,
standard,soundFiles/1000Hz_-3dBFS_3s_44.1kHz.wav',None,1000,49,0,196,0,,,,,707.7239610999823,708.7244306000066,708.7241000199807,709.8074064999819,710.7239003999857,2.0735192451798374,None,1,,709.7236219999613,,001,2023-10-31_11h21.29.605,Oddball_task,2022.2.5,60.13764304233678,
target,soundFiles/1200Hz_-3dBFS_3s_44.1kHz.wav',t,2000,49,1,197,3,,,,,710.7239003999857,711.7250225999742,711.7253445199691,714.4740852999967,713.7408549999818,3.7418411766925557,t,1,0.8866996999713592,,,001,2023-10-31_11h21.29.605,Oddball_task,2022.2.5,60.13764304233678,
standard,soundFiles/1000Hz_-3dBFS_3s_44.1kHz.wav',None,1000,49,2,198,1,,,,,714.4740852999967,715.4735716999858,715.4742169199977,716.9407750999671,717.4734241999686,2.464304381346734,None,1,,,,001,2023-10-31_11h21.29.605,Oddball_task,2022.2.5,60.13764304233678,
standard,soundFiles/1000Hz_-3dBFS_3s_44.1kHz.wav',None,1000,49,3,199,2,,,,,717.4734241999686,718.4736993999686,718.4758807199775,720.9742175999563,720.4743712999625,3.488953258546462,None,1,,,,001,2023-10-31_11h21.29.605,Oddball_task,2022.2.5,60.13764304233678,
standard,soundFiles/1000Hz_-3dBFS_3s_44.1kHz.wav',None,1000,50,0,200,1,,,,,720.9742175999563,721.9745620999602,721.9736825200031,724.8605161999585,723.9745390999597,3.8728688265330184,None,1,,,,001,2023-10-31_11h21.29.605,Oddball_task,2022.2.5,60.13764304233678,
target,soundFiles/1200Hz_-3dBFS_3s_44.1kHz.wav',t,2000,50,1,201,3,,,,,724.8605161999585,725.8574818999623,725.8573758199578,728.1745205000043,727.8578184999642,3.3040311214789035,t,1,0.6339535000151955,,,001,2023-10-31_11h21.29.605,Oddball_task,2022.2.5,60.13764304233678,
standard,soundFiles/1000Hz_-3dBFS_3s_44.1kHz.wav',None,1000,50,2,202,2,,,,,728.1745205000043,729.156972399971,729.1595687199966,730.3902340999921,731.1569194999756,2.2010599273382274,None,1,,,,001,2023-10-31_11h21.29.605,Oddball_task,2022.2.5,60.13764304233678,
standard,soundFiles/1000Hz_-3dBFS_3s_44.1kHz.wav',None,1000,50,3,203,0,,,,,731.1569194999756,732.1576242999872,732.1575714199804,733.2069306999911,734.1582063999958,2.047827738117681,None,1,,,,001,2023-10-31_11h21.29.605,Oddball_task,2022.2.5,60.13764304233678,
,,,,,,,,,,,,734.1582063999958,735.1416859999881,735.1430223199656,,,,,,,,,,,,,,
