trial,file,corrAns,tone,trials_2.thisRepN,trials_2.thisTrialN,trials_2.thisN,trials_2.thisIndex,instructions.started,key_resp_1.started,key_resp_1.keys,key_resp_1.rt,fixation.started,response.started,sound_1.started,fixation.stopped,response.stopped,FixDur,response.keys,response.corr,participant,session,date,expName,psychopyVersion,frameRate,
,,,,,,,,20.344762399996398,20.344762399996398,space,179.23687859998608,,,,,,,,,,001,2023-11-02_11h17.29.285,Oddball_task,2022.2.5,59.77668625305183,
standard,soundFiles/1000Hz_-3dBFS_3s_44.1kHz.wav',None,40,0,0,0,2,,,,,199.63037199999962,200.61451610000222,200.61500679999298,202.06418580000172,202.61456950000138,2.424985551612924,None,1,,001,2023-11-02_11h17.29.285,Oddball_task,2022.2.5,59.77668625305183,
standard,soundFiles/1000Hz_-3dBFS_3s_44.1kHz.wav',None,40,0,1,1,1,,,,,202.61456950000138,203.614113299991,203.61484720000007,205.19780919999175,205.61382699999376,2.5842954046316007,None,1,,001,2023-11-02_11h17.29.285,Oddball_task,2022.2.5,59.77668625305183,
target,soundFiles/1200Hz_-3dBFS_3s_44.1kHz.wav',t,60,0,2,2,3,,,,,205.61382699999376,206.61421030000201,206.61396430000022,209.6477559999912,208.6138920999947,4.033602524537313,None,0,,001,2023-11-02_11h17.29.285,Oddball_task,2022.2.5,59.77668625305183,
standard,soundFiles/1000Hz_-3dBFS_3s_44.1kHz.wav',None,40,0,3,3,0,,,,,209.6477559999912,210.6477484999923,210.64735629999777,214.85066460000235,212.64762879999762,5.200916740510515,None,1,,001,2023-11-02_11h17.29.285,Oddball_task,2022.2.5,59.77668625305183,
standard,soundFiles/1000Hz_-3dBFS_3s_44.1kHz.wav',None,40,1,0,4,2,,,,,214.85066460000235,215.83266000000003,215.8390918000019,218.96416849999514,217.84747520000383,4.099584280796773,None,1,,001,2023-11-02_11h17.29.285,Oddball_task,2022.2.5,59.77668625305183,
standard,soundFiles/1000Hz_-3dBFS_3s_44.1kHz.wav',None,40,1,1,5,0,,,,,218.96416849999514,219.96445159999712,219.9649224999972,223.39781209999637,221.96403999999166,4.419159186032919,None,1,,001,2023-11-02_11h17.29.285,Oddball_task,2022.2.5,59.77668625305183,
standard,soundFiles/1000Hz_-3dBFS_3s_44.1kHz.wav',None,40,1,2,6,1,,,,,223.39781209999637,224.3979427000013,224.39781309999816,227.98329200000444,226.39820949999557,4.573939502685022,None,1,,001,2023-11-02_11h17.29.285,Oddball_task,2022.2.5,59.77668625305183,
target,soundFiles/1200Hz_-3dBFS_3s_44.1kHz.wav',t,60,1,3,7,3,,,,,227.98329200000444,228.9814303000021,228.981303999995,233.14805479999632,230.9818019999948,5.152920714487024,None,0,,001,2023-11-02_11h17.29.285,Oddball_task,2022.2.5,59.77668625305183,
target,soundFiles/1200Hz_-3dBFS_3s_44.1kHz.wav',t,60,2,0,8,3,,,,,233.14805479999632,234.13478490000125,234.13518520000216,236.29766779999773,236.14841189999424,3.1369226326771753,None,0,,001,2023-11-02_11h17.29.285,Oddball_task,2022.2.5,59.77668625305183,
standard,soundFiles/1000Hz_-3dBFS_3s_44.1kHz.wav',None,40,2,1,9,0,,,,,236.29766779999773,237.29761310000322,237.29805249999626,238.53214630000002,239.29858960000274,2.2181916685312926,None,1,,001,2023-11-02_11h17.29.285,Oddball_task,2022.2.5,59.77668625305183,
standard,soundFiles/1000Hz_-3dBFS_3s_44.1kHz.wav',None,40,2,2,10,1,,,,,239.29858960000274,240.29830900000525,240.29806300000345,245.0144108999957,242.29831549999653,5.704272088386514,None,1,,001,2023-11-02_11h17.29.285,Oddball_task,2022.2.5,59.77668625305183,
standard,soundFiles/1000Hz_-3dBFS_3s_44.1kHz.wav',None,40,2,3,11,2,,,,,245.0144108999957,246.0146170999942,246.0144595999969,250.84827249999216,248.01561010000296,5.831150636987139,None,1,,001,2023-11-02_11h17.29.285,Oddball_task,2022.2.5,59.77668625305183,
standard,soundFiles/1000Hz_-3dBFS_3s_44.1kHz.wav',None,40,3,0,12,1,,,,,250.84827249999216,251.84790069999872,251.84759630000335,256.76463279999734,253.8481094000017,5.90997717439916,None,1,,001,2023-11-02_11h17.29.285,Oddball_task,2022.2.5,59.77668625305183,
target,soundFiles/1200Hz_-3dBFS_3s_44.1kHz.wav',t,60,3,1,13,3,,,,,256.76463279999734,257.76468049999676,257.7649112000014,261.8984305999911,259.7646725999948,5.127465157638488,None,0,,001,2023-11-02_11h17.29.285,Oddball_task,2022.2.5,59.77668625305183,
standard,soundFiles/1000Hz_-3dBFS_3s_44.1kHz.wav',None,40,3,2,14,2,,,,,261.8984305999911,262.8979382999969,262.8979671999929,267.1506684999913,264.8982738999912,5.223320930631658,None,1,,001,2023-11-02_11h17.29.285,Oddball_task,2022.2.5,59.77668625305183,
standard,soundFiles/1000Hz_-3dBFS_3s_44.1kHz.wav',None,40,3,3,15,0,,,,,267.1506684999913,268.1315142999956,268.13149029999624,273.0984921000054,270.1317971999961,5.936034050745585,None,1,,001,2023-11-02_11h17.29.285,Oddball_task,2022.2.5,59.77668625305183,
standard,soundFiles/1000Hz_-3dBFS_3s_44.1kHz.wav',None,40,4,0,16,2,,,,,273.0984921000054,274.0989266999968,274.0982470999967,278.4817564999976,276.09819509999943,5.379682331904595,None,1,,001,2023-11-02_11h17.29.285,Oddball_task,2022.2.5,59.77668625305183,
standard,soundFiles/1000Hz_-3dBFS_3s_44.1kHz.wav',None,40,4,1,17,0,,,,,278.4817564999976,279.48162310000043,279.48154000000216,281.8314309999987,281.48190139999497,3.346617653955058,None,1,,001,2023-11-02_11h17.29.285,Oddball_task,2022.2.5,59.77668625305183,
standard,soundFiles/1000Hz_-3dBFS_3s_44.1kHz.wav',None,40,4,2,18,1,,,,,281.8314309999987,282.8320415999915,282.8318622000021,287.33247459999984,284.8322230999911,5.492468798611059,None,1,,001,2023-11-02_11h17.29.285,Oddball_task,2022.2.5,59.77668625305183,
target,soundFiles/1200Hz_-3dBFS_3s_44.1kHz.wav',t,60,4,3,19,3,,,,,287.33247459999984,288.3317056999949,288.3315821999946,292.9985414999974,290.3319774999982,5.656861292024269,None,0,,001,2023-11-02_11h17.29.285,Oddball_task,2022.2.5,59.77668625305183,
standard,soundFiles/1000Hz_-3dBFS_3s_44.1kHz.wav',None,40,5,0,20,2,,,,,292.9985414999974,293.99855570000364,293.9989748000022,297.9650302999944,295.998537499996,4.9554431337760345,None,1,,001,2023-11-02_11h17.29.285,Oddball_task,2022.2.5,59.77668625305183,
standard,soundFiles/1000Hz_-3dBFS_3s_44.1kHz.wav',None,40,5,1,21,1,,,,,297.9650302999944,298.9650203999918,298.96479859999965,303.7648343000037,300.9655719000002,5.786885654102293,None,1,,001,2023-11-02_11h17.29.285,Oddball_task,2022.2.5,59.77668625305183,
target,soundFiles/1200Hz_-3dBFS_3s_44.1kHz.wav',t,60,5,2,22,3,,,,,303.7648343000037,304.7651715999964,304.7647365999961,307.11665870000434,306.7651932000008,3.3371371899948286,None,0,,001,2023-11-02_11h17.29.285,Oddball_task,2022.2.5,59.77668625305183,
standard,soundFiles/1000Hz_-3dBFS_3s_44.1kHz.wav',None,40,5,3,23,0,,,,,307.11665870000434,308.11518730000535,308.11515479999946,310.84875580000516,310.11530160000257,3.7284951992138033,None,1,,001,2023-11-02_11h17.29.285,Oddball_task,2022.2.5,59.77668625305183,
standard,soundFiles/1000Hz_-3dBFS_3s_44.1kHz.wav',None,40,6,0,24,0,,,,,310.84875580000516,311.83213650000107,311.8325532999967,316.29847199999494,313.8322219999973,5.436613285966461,None,1,,001,2023-11-02_11h17.29.285,Oddball_task,2022.2.5,59.77668625305183,
target,soundFiles/1200Hz_-3dBFS_3s_44.1kHz.wav',t,60,6,1,25,3,,,,,316.29847199999494,317.2984604999947,317.29830150000055,318.78209219999553,319.2984129999968,2.469524501589557,None,0,,001,2023-11-02_11h17.29.285,Oddball_task,2022.2.5,59.77668625305183,
standard,soundFiles/1000Hz_-3dBFS_3s_44.1kHz.wav',None,40,6,2,26,2,,,,,319.2984129999968,320.29906380000466,320.29903689999776,323.448942300005,322.2985845999938,4.144963707829653,None,1,,001,2023-11-02_11h17.29.285,Oddball_task,2022.2.5,59.77668625305183,
standard,soundFiles/1000Hz_-3dBFS_3s_44.1kHz.wav',None,40,6,3,27,1,,,,,323.448942300005,324.4488402999996,324.4484747000039,329.1319506,326.44876489999297,5.679099953518516,None,1,,001,2023-11-02_11h17.29.285,Oddball_task,2022.2.5,59.77668625305183,
standard,soundFiles/1000Hz_-3dBFS_3s_44.1kHz.wav',None,40,7,0,28,1,,,,,329.1319506,330.1321228000015,330.1319646999997,332.78195449999475,332.1325421999936,3.637826838664273,None,1,,001,2023-11-02_11h17.29.285,Oddball_task,2022.2.5,59.77668625305183,
standard,soundFiles/1000Hz_-3dBFS_3s_44.1kHz.wav',None,40,7,1,29,2,,,,,332.78195449999475,333.7825681999966,333.7820752000058,337.29881049999676,335.7830859999958,4.51526404083066,None,1,,001,2023-11-02_11h17.29.285,Oddball_task,2022.2.5,59.77668625305183,
standard,soundFiles/1000Hz_-3dBFS_3s_44.1kHz.wav',None,40,7,2,30,0,,,,,337.29881049999676,338.3000156000053,338.29934469999864,340.5989466000028,340.3158958999993,3.2927662828221744,None,1,,001,2023-11-02_11h17.29.285,Oddball_task,2022.2.5,59.77668625305183,
target,soundFiles/1200Hz_-3dBFS_3s_44.1kHz.wav',t,60,7,3,31,3,,,,,340.5989466000028,341.59928979999677,341.5993434999924,346.5497631000035,343.599160999991,5.938067304109394,None,0,,001,2023-11-02_11h17.29.285,Oddball_task,2022.2.5,59.77668625305183,
target,soundFiles/1200Hz_-3dBFS_3s_44.1kHz.wav',t,60,8,0,32,3,,,,,346.5497631000035,347.54958859999897,347.5490114999935,350.31626049999613,349.549451400002,3.7587064074820393,None,0,,001,2023-11-02_11h17.29.285,Oddball_task,2022.2.5,59.77668625305183,
standard,soundFiles/1000Hz_-3dBFS_3s_44.1kHz.wav',None,40,8,1,33,0,,,,,350.31626049999613,351.31625760000315,351.3155590000039,355.9487705999927,353.316527899995,5.630282402730916,None,1,,001,2023-11-02_11h17.29.285,Oddball_task,2022.2.5,59.77668625305183,
standard,soundFiles/1000Hz_-3dBFS_3s_44.1kHz.wav',None,40,8,2,34,2,,,,,355.9487705999927,356.9501980999921,356.9507377999922,359.4155596999917,358.9655558999948,3.463194098805531,None,1,,001,2023-11-02_11h17.29.285,Oddball_task,2022.2.5,59.77668625305183,
standard,soundFiles/1000Hz_-3dBFS_3s_44.1kHz.wav',None,40,8,3,35,1,,,,,359.4155596999917,360.41590670000005,360.4157081999962,361.5018562000041,362.4169830000028,2.080131370901474,None,1,,001,2023-11-02_11h17.29.285,Oddball_task,2022.2.5,59.77668625305183,
standard,soundFiles/1000Hz_-3dBFS_3s_44.1kHz.wav',None,40,9,0,36,0,,,,,362.4169830000028,363.4161042999913,363.4157610000053,367.68212009999843,365.4156301000039,5.26028981516511,None,1,,001,2023-11-02_11h17.29.285,Oddball_task,2022.2.5,59.77668625305183,
standard,soundFiles/1000Hz_-3dBFS_3s_44.1kHz.wav',None,40,9,1,37,1,,,,,367.68212009999843,368.6826946999936,368.6827891999943,373.23234960000264,370.68285929999547,5.547479132284019,None,1,,001,2023-11-02_11h17.29.285,Oddball_task,2022.2.5,59.77668625305183,
target,soundFiles/1200Hz_-3dBFS_3s_44.1kHz.wav',t,60,9,2,38,3,,,,,373.23234960000264,374.232511299997,374.2324644999986,378.53254559999914,376.2329264,5.301232537483877,None,0,,001,2023-11-02_11h17.29.285,Oddball_task,2022.2.5,59.77668625305183,
standard,soundFiles/1000Hz_-3dBFS_3s_44.1kHz.wav',None,40,9,3,39,2,,,,,378.53254559999914,379.5330252999993,379.53235239999196,381.9824393000017,381.5329204000009,3.4464242049881157,None,1,,001,2023-11-02_11h17.29.285,Oddball_task,2022.2.5,59.77668625305183,
standard,soundFiles/1000Hz_-3dBFS_3s_44.1kHz.wav',None,40,10,0,40,0,,,,,381.9824393000017,382.9827770999982,382.982600500001,387.4492966999969,384.98257880000165,5.4565409041819635,None,1,,001,2023-11-02_11h17.29.285,Oddball_task,2022.2.5,59.77668625305183,
standard,soundFiles/1000Hz_-3dBFS_3s_44.1kHz.wav',None,40,10,1,41,2,,,,,387.4492966999969,388.4491566999932,388.4491772999987,390.3663341999927,390.449166099992,2.909583506639517,None,1,,001,2023-11-02_11h17.29.285,Oddball_task,2022.2.5,59.77668625305183,
standard,soundFiles/1000Hz_-3dBFS_3s_44.1kHz.wav',None,40,10,2,42,1,,,,,390.449166099992,391.4495409999945,391.4491343999922,395.21695380000165,393.4500154999987,4.754916510544265,None,1,,001,2023-11-02_11h17.29.285,Oddball_task,2022.2.5,59.77668625305183,
target,soundFiles/1200Hz_-3dBFS_3s_44.1kHz.wav',t,60,10,3,43,3,,,,,395.21695380000165,396.21646399999736,396.21629380000525,397.59946050000144,398.2159505000018,2.3814740592067216,None,0,,001,2023-11-02_11h17.29.285,Oddball_task,2022.2.5,59.77668625305183,
standard,soundFiles/1000Hz_-3dBFS_3s_44.1kHz.wav',None,40,11,0,44,1,,,,,398.2159505000018,399.2160060000024,399.21600520000504,403.54969499999424,401.2165001999965,5.321623479845178,None,1,,001,2023-11-02_11h17.29.285,Oddball_task,2022.2.5,59.77668625305183,
standard,soundFiles/1000Hz_-3dBFS_3s_44.1kHz.wav',None,40,11,1,45,2,,,,,403.54969499999424,404.55001900000207,404.54974650000224,407.66653329999826,406.5498491000035,4.101486500937586,None,1,,001,2023-11-02_11h17.29.285,Oddball_task,2022.2.5,59.77668625305183,
standard,soundFiles/1000Hz_-3dBFS_3s_44.1kHz.wav',None,40,11,2,46,0,,,,,407.66653329999826,408.6664976000029,408.6668573000003,412.56629899999825,410.6662784999935,4.886568370499134,None,1,,001,2023-11-02_11h17.29.285,Oddball_task,2022.2.5,59.77668625305183,
target,soundFiles/1200Hz_-3dBFS_3s_44.1kHz.wav',t,60,11,3,47,3,,,,,412.56629899999825,413.5662316999951,413.56642599999907,417.7331220000051,415.5663916999911,5.161348715529575,None,0,,001,2023-11-02_11h17.29.285,Oddball_task,2022.2.5,59.77668625305183,
standard,soundFiles/1000Hz_-3dBFS_3s_44.1kHz.wav',None,40,12,0,48,2,,,,,417.7331220000051,418.7332222999976,418.73296610000546,421.98367449999205,420.73306050000247,4.235394336605616,None,1,,001,2023-11-02_11h17.29.285,Oddball_task,2022.2.5,59.77668625305183,
standard,soundFiles/1000Hz_-3dBFS_3s_44.1kHz.wav',None,40,12,1,49,0,,,,,421.98367449999205,422.9828569999954,422.983419299993,426.1007164000039,424.98309130000416,4.11375466717694,None,1,,001,2023-11-02_11h17.29.285,Oddball_task,2022.2.5,59.77668625305183,
standard,soundFiles/1000Hz_-3dBFS_3s_44.1kHz.wav',None,40,12,2,50,1,,,,,426.1007164000039,427.10115469999437,427.0999545000028,431.8332507000014,429.11635959999694,5.722678670160418,None,1,,001,2023-11-02_11h17.29.285,Oddball_task,2022.2.5,59.77668625305183,
target,soundFiles/1200Hz_-3dBFS_3s_44.1kHz.wav',t,60,12,3,51,3,,,,,431.8332507000014,432.8329245999921,432.8329350999935,435.699869899996,434.8331595000054,3.863601595551806,None,0,,001,2023-11-02_11h17.29.285,Oddball_task,2022.2.5,59.77668625305183,
standard,soundFiles/1000Hz_-3dBFS_3s_44.1kHz.wav',None,40,13,0,52,2,,,,,435.699869899996,436.6998225999996,436.69976949999693,438.28336459999264,438.69987799999944,2.577131251032553,None,1,,001,2023-11-02_11h17.29.285,Oddball_task,2022.2.5,59.77668625305183,
standard,soundFiles/1000Hz_-3dBFS_3s_44.1kHz.wav',None,40,13,1,53,1,,,,,438.69987799999944,439.69983529999445,439.6991523999983,442.3171813999943,441.69975220000197,3.6106772429037965,None,1,,001,2023-11-02_11h17.29.285,Oddball_task,2022.2.5,59.77668625305183,
target,soundFiles/1200Hz_-3dBFS_3s_44.1kHz.wav',t,60,13,2,54,3,,,,,442.3171813999943,443.3167395000055,443.31681379999793,447.68298670000513,445.3170520999993,5.358665334599248,None,0,,001,2023-11-02_11h17.29.285,Oddball_task,2022.2.5,59.77668625305183,
standard,soundFiles/1000Hz_-3dBFS_3s_44.1kHz.wav',None,40,13,3,55,0,,,,,447.68298670000513,448.6828894999926,448.68291169999577,451.7498557999934,450.6827831999981,4.053042698496824,None,1,,001,2023-11-02_11h17.29.285,Oddball_task,2022.2.5,59.77668625305183,
standard,soundFiles/1000Hz_-3dBFS_3s_44.1kHz.wav',None,40,14,0,56,0,,,,,451.7498557999934,452.75042169999506,452.75049410000213,456.8166547000001,454.7501106999989,5.0672114348393595,None,1,,001,2023-11-02_11h17.29.285,Oddball_task,2022.2.5,59.77668625305183,
standard,soundFiles/1000Hz_-3dBFS_3s_44.1kHz.wav',None,40,14,1,57,2,,,,,456.8166547000001,457.8169789999956,457.81670380000435,460.51639589999104,459.8166557999939,3.686304624168442,None,1,,001,2023-11-02_11h17.29.285,Oddball_task,2022.2.5,59.77668625305183,
standard,soundFiles/1000Hz_-3dBFS_3s_44.1kHz.wav',None,40,14,2,58,1,,,,,460.51639589999104,461.51724839999224,461.5164342000004,465.58372729999246,463.51698440000473,5.064416755261771,None,1,,001,2023-11-02_11h17.29.285,Oddball_task,2022.2.5,59.77668625305183,
target,soundFiles/1200Hz_-3dBFS_3s_44.1kHz.wav',t,60,14,3,59,3,,,,,465.58372729999246,466.5837731999927,466.58341699999585,470.41679410000506,468.583842299995,4.8325912867076175,None,0,,001,2023-11-02_11h17.29.285,Oddball_task,2022.2.5,59.77668625305183,
target,soundFiles/1200Hz_-3dBFS_3s_44.1kHz.wav',t,60,15,0,60,3,,,,,470.41679410000506,471.41703229999985,471.4170628999942,475.4336073000013,473.4170271000039,5.002799387982401,None,0,,001,2023-11-02_11h17.29.285,Oddball_task,2022.2.5,59.77668625305183,
standard,soundFiles/1000Hz_-3dBFS_3s_44.1kHz.wav',None,40,15,1,61,2,,,,,475.4336073000013,476.4336076000036,476.433535400001,477.650269699996,478.4332194000017,2.2132677927019295,None,1,,001,2023-11-02_11h17.29.285,Oddball_task,2022.2.5,59.77668625305183,
standard,soundFiles/1000Hz_-3dBFS_3s_44.1kHz.wav',None,40,15,2,62,1,,,,,478.4332194000017,479.43359250000503,479.43326050000326,483.7335948999971,481.43340919999173,5.29873224865574,None,1,,001,2023-11-02_11h17.29.285,Oddball_task,2022.2.5,59.77668625305183,
standard,soundFiles/1000Hz_-3dBFS_3s_44.1kHz.wav',None,40,15,3,63,0,,,,,483.7335948999971,484.73321989999386,484.7332477999968,486.4671029000019,486.7336256999988,2.719462762314522,None,1,,001,2023-11-02_11h17.29.285,Oddball_task,2022.2.5,59.77668625305183,
standard,soundFiles/1000Hz_-3dBFS_3s_44.1kHz.wav',None,40,16,0,64,1,,,,,486.7336256999988,487.7342367999954,487.7333534000005,491.317112299992,489.7334306999983,4.5809374971172865,None,1,,001,2023-11-02_11h17.29.285,Oddball_task,2022.2.5,59.77668625305183,
target,soundFiles/1200Hz_-3dBFS_3s_44.1kHz.wav',t,60,16,1,65,3,,,,,491.317112299992,492.3169759000011,492.3167450999987,496.7502344999957,494.31914219999453,5.423407811848016,None,0,,001,2023-11-02_11h17.29.285,Oddball_task,2022.2.5,59.77668625305183,
standard,soundFiles/1000Hz_-3dBFS_3s_44.1kHz.wav',None,40,16,2,66,0,,,,,496.7502344999957,497.75120060000336,497.7515808999975,499.4169922000001,499.7507288999914,2.6577493202741014,None,1,,001,2023-11-02_11h17.29.285,Oddball_task,2022.2.5,59.77668625305183,
standard,soundFiles/1000Hz_-3dBFS_3s_44.1kHz.wav',None,40,16,3,67,2,,,,,499.7507288999914,500.7507240999985,500.7508446999942,502.56753139999637,502.75048249999236,2.8059832546702435,None,1,,001,2023-11-02_11h17.29.285,Oddball_task,2022.2.5,59.77668625305183,
target,soundFiles/1200Hz_-3dBFS_3s_44.1kHz.wav',t,60,17,0,68,3,,,,,502.75048249999236,503.751305999991,503.7515007999988,505.61717399999907,505.75064980000025,2.8549491183231286,None,0,,001,2023-11-02_11h17.29.285,Oddball_task,2022.2.5,59.77668625305183,
standard,soundFiles/1000Hz_-3dBFS_3s_44.1kHz.wav',None,40,17,1,69,2,,,,,505.75064980000025,506.75033589999657,506.7504189999978,511.7175588999962,508.7506727,5.958880437959344,None,1,,001,2023-11-02_11h17.29.285,Oddball_task,2022.2.5,59.77668625305183,
standard,soundFiles/1000Hz_-3dBFS_3s_44.1kHz.wav',None,40,17,2,70,0,,,,,511.7175588999962,512.7172334999923,512.7172237999999,513.7505973999941,514.721707299992,2.0250710905494023,None,1,,001,2023-11-02_11h17.29.285,Oddball_task,2022.2.5,59.77668625305183,
standard,soundFiles/1000Hz_-3dBFS_3s_44.1kHz.wav',None,40,17,3,71,1,,,,,514.721707299992,515.7175799999968,515.716987699992,516.9846007000015,517.7170092000015,2.259088898936554,None,1,,001,2023-11-02_11h17.29.285,Oddball_task,2022.2.5,59.77668625305183,
standard,soundFiles/1000Hz_-3dBFS_3s_44.1kHz.wav',None,40,18,0,72,1,,,,,517.7170092000015,518.7180535999942,518.7174058000033,522.9840684999945,520.7573682999937,5.261538434516789,None,1,,001,2023-11-02_11h17.29.285,Oddball_task,2022.2.5,59.77668625305183,
standard,soundFiles/1000Hz_-3dBFS_3s_44.1kHz.wav',None,40,18,1,73,0,,,,,522.9840684999945,523.9841903999913,523.9836403000023,527.0851275000023,525.9846548999922,4.086974270888701,None,1,,001,2023-11-02_11h17.29.285,Oddball_task,2022.2.5,59.77668625305183,
target,soundFiles/1200Hz_-3dBFS_3s_44.1kHz.wav',t,60,18,2,74,3,,,,,527.0851275000023,528.0838446999987,528.0836594999943,532.2851775000017,530.0846978000045,5.186119447860795,None,0,,001,2023-11-02_11h17.29.285,Oddball_task,2022.2.5,59.77668625305183,
standard,soundFiles/1000Hz_-3dBFS_3s_44.1kHz.wav',None,40,18,3,75,2,,,,,532.2851775000017,533.2839429000014,533.2838146999944,535.551589900002,535.2844686000026,3.2528431826520867,None,1,,001,2023-11-02_11h17.29.285,Oddball_task,2022.2.5,59.77668625305183,
standard,soundFiles/1000Hz_-3dBFS_3s_44.1kHz.wav',None,40,19,0,76,2,,,,,535.551589900002,536.550834099995,536.5506575999985,538.2502034999925,538.5500784000033,2.6931467458558496,None,1,,001,2023-11-02_11h17.29.285,Oddball_task,2022.2.5,59.77668625305183,
standard,soundFiles/1000Hz_-3dBFS_3s_44.1kHz.wav',None,40,19,1,77,0,,,,,538.5500784000033,539.550424999994,539.5504290000041,540.7836626999924,541.5501464999979,2.224244966317944,None,1,,001,2023-11-02_11h17.29.285,Oddball_task,2022.2.5,59.77668625305183,
,,,,,,,,,,,,541.5501464999979,542.5502999000018,542.5498894999997,,,,,,,,,,,,
