trial,file,corrAns,tone,trials_2.thisRepN,trials_2.thisTrialN,trials_2.thisN,trials_2.thisIndex,instructions.started,key_resp_1.started,key_resp_1.keys,key_resp_1.rt,fixation.started,response.started,sound_1.started,fixation.stopped,response.stopped,FixDur,response.keys,response.corr,response.rt,sound_1.stopped,participant,session,date,expName,psychopyVersion,frameRate,
,,,,,,,,28.43314169999212,28.43314169999212,space,14.814515199992456,,,,,,,,,,,elpida_27_10_23_ao_hugin_dots,001,2023-10-27_14h53.40.777,Oddball_task,2022.2.5,59.99998800165726,
standard,soundFiles/1000Hz_-3dBFS_3s_44.1kHz.wav',None,1000,0,0,0,1,,,,,43.27886839999701,44.26543800000218,44.26354795999505,46.0819058999914,46.27951469999971,2.7874100094241863,None,1,,,elpida_27_10_23_ao_hugin_dots,001,2023-10-27_14h53.40.777,Oddball_task,2022.2.5,59.99998800165726,
target,soundFiles/1200Hz_-3dBFS_3s_44.1kHz.wav',t,2000,0,1,1,3,,,,,46.27951469999971,47.28001309999672,47.28048195999436,49.94706900000165,49.28015900000173,3.6558629541357988,t,1,0.7844940000068163,,elpida_27_10_23_ao_hugin_dots,001,2023-10-27_14h53.40.777,Oddball_task,2022.2.5,59.99998800165726,
standard,soundFiles/1000Hz_-3dBFS_3s_44.1kHz.wav',None,1000,0,2,2,2,,,,,49.94706900000165,50.948250300003565,50.947222760001026,52.0467154999933,52.9465474000026,2.0936345476818787,None,1,,,elpida_27_10_23_ao_hugin_dots,001,2023-10-27_14h53.40.777,Oddball_task,2022.2.5,59.99998800165726,
standard,soundFiles/1000Hz_-3dBFS_3s_44.1kHz.wav',None,1000,0,3,3,0,,,,,52.9465474000026,53.946271599998,53.94723555999663,56.89738709999074,55.94687800000247,3.951082397316999,None,1,,,elpida_27_10_23_ao_hugin_dots,001,2023-10-27_14h53.40.777,Oddball_task,2022.2.5,59.99998800165726,
standard,soundFiles/1000Hz_-3dBFS_3s_44.1kHz.wav',None,1000,1,0,4,2,,,,,56.89738709999074,57.89638659999764,57.896655760002616,60.19643749999523,59.896263000002364,3.297495074289299,None,1,,,elpida_27_10_23_ao_hugin_dots,001,2023-10-27_14h53.40.777,Oddball_task,2022.2.5,59.99998800165726,
standard,soundFiles/1000Hz_-3dBFS_3s_44.1kHz.wav',None,1000,1,1,5,1,,,,,60.19643749999523,61.1961997999897,61.196192359998534,63.845296599989524,63.196976899998845,3.6390666912641754,None,1,,,elpida_27_10_23_ao_hugin_dots,001,2023-10-27_14h53.40.777,Oddball_task,2022.2.5,59.99998800165726,
standard,soundFiles/1000Hz_-3dBFS_3s_44.1kHz.wav',None,1000,1,2,6,0,,,,,63.845296599989524,64.82993619999615,64.83032245999057,67.79704979999224,66.83047859999351,3.950974628055712,None,1,,,elpida_27_10_23_ao_hugin_dots,001,2023-10-27_14h53.40.777,Oddball_task,2022.2.5,59.99998800165726,
target,soundFiles/1200Hz_-3dBFS_3s_44.1kHz.wav',t,2000,1,3,7,3,,,,,67.79704979999224,68.7965441999986,68.79661115999188,70.66246140000294,70.79610140000295,2.8546792636010827,t,1,0.6345538000023225,,elpida_27_10_23_ao_hugin_dots,001,2023-10-27_14h53.40.777,Oddball_task,2022.2.5,59.99998800165726,
target,soundFiles/1200Hz_-3dBFS_3s_44.1kHz.wav',t,2000,2,0,8,3,,,,,70.79610140000295,71.79655820000335,71.79587365999323,74.64522989999386,73.79638509999495,3.8357420490191045,t,1,0.817607200006023,,elpida_27_10_23_ao_hugin_dots,001,2023-10-27_14h53.40.777,Oddball_task,2022.2.5,59.99998800165726,
standard,soundFiles/1000Hz_-3dBFS_3s_44.1kHz.wav',None,1000,2,1,9,0,,,,,74.64522989999386,75.6450063999946,75.64669206000254,77.7111986999953,77.64467699998931,3.052917123359962,None,1,,,elpida_27_10_23_ao_hugin_dots,001,2023-10-27_14h53.40.777,Oddball_task,2022.2.5,59.99998800165726,
standard,soundFiles/1000Hz_-3dBFS_3s_44.1kHz.wav',None,1000,2,2,10,1,,,,,77.7111986999953,78.69796059999499,78.69553375998949,80.97806579999451,80.71190219999698,3.253853784495754,None,1,,,elpida_27_10_23_ao_hugin_dots,001,2023-10-27_14h53.40.777,Oddball_task,2022.2.5,59.99998800165726,
standard,soundFiles/1000Hz_-3dBFS_3s_44.1kHz.wav',None,1000,2,3,11,2,,,,,80.97806579999451,81.97819149999123,81.97913596000144,84.97806589999527,83.97813519999909,3.9881033964848527,None,1,,,elpida_27_10_23_ao_hugin_dots,001,2023-10-27_14h53.40.777,Oddball_task,2022.2.5,59.99998800165726,
standard,soundFiles/1000Hz_-3dBFS_3s_44.1kHz.wav',None,1000,3,0,12,2,,,,,84.97806589999527,85.97911259999091,85.9803629600021,88.32908529999258,87.97746329999063,3.3513494922061855,None,1,,,elpida_27_10_23_ao_hugin_dots,001,2023-10-27_14h53.40.777,Oddball_task,2022.2.5,59.99998800165726,
standard,soundFiles/1000Hz_-3dBFS_3s_44.1kHz.wav',None,1000,3,1,13,0,,,,,88.32908529999258,89.32861359999515,89.32862496000162,91.27819369999634,91.32913420000114,2.93691278594532,None,1,,,elpida_27_10_23_ao_hugin_dots,001,2023-10-27_14h53.40.777,Oddball_task,2022.2.5,59.99998800165726,
target,soundFiles/1200Hz_-3dBFS_3s_44.1kHz.wav',t,2000,3,2,14,3,,,,,91.32913420000114,92.31175280000025,92.3121336599972,94.74441259999003,94.31162320000294,3.4109830919549524,t,1,0.7494645999977365,,elpida_27_10_23_ao_hugin_dots,001,2023-10-27_14h53.40.777,Oddball_task,2022.2.5,59.99998800165726,
standard,soundFiles/1000Hz_-3dBFS_3s_44.1kHz.wav',None,1000,3,3,15,1,,,,,94.74441259999003,95.74449460000324,95.7452465599883,97.46182329999283,97.74409639999794,2.70346623722567,None,1,,96.7441123000026,elpida_27_10_23_ao_hugin_dots,001,2023-10-27_14h53.40.777,Oddball_task,2022.2.5,59.99998800165726,
target,soundFiles/1200Hz_-3dBFS_3s_44.1kHz.wav',t,2000,4,0,16,3,,,,,97.74409639999794,98.74397989999852,98.74447165999591,100.01050869999744,100.74422039999627,2.257345227051074,t,1,0.9493511999899056,,elpida_27_10_23_ao_hugin_dots,001,2023-10-27_14h53.40.777,Oddball_task,2022.2.5,59.99998800165726,
standard,soundFiles/1000Hz_-3dBFS_3s_44.1kHz.wav',None,1000,4,1,17,0,,,,,100.74422039999627,101.74383500000113,101.7447086599961,103.94429849999142,103.74439789999451,3.2015892641768557,None,1,,,elpida_27_10_23_ao_hugin_dots,001,2023-10-27_14h53.40.777,Oddball_task,2022.2.5,59.99998800165726,
standard,soundFiles/1000Hz_-3dBFS_3s_44.1kHz.wav',None,1000,4,2,18,1,,,,,103.94429849999142,104.9438164000021,104.94406255999202,107.27679259999422,106.94392140000127,3.3253257471848503,None,1,,,elpida_27_10_23_ao_hugin_dots,001,2023-10-27_14h53.40.777,Oddball_task,2022.2.5,59.99998800165726,
standard,soundFiles/1000Hz_-3dBFS_3s_44.1kHz.wav',None,1000,4,3,19,2,,,,,107.27679259999422,108.27717049999046,108.27860895999329,111.04295699999784,110.2764382000023,3.7577553626206774,None,1,,,elpida_27_10_23_ao_hugin_dots,001,2023-10-27_14h53.40.777,Oddball_task,2022.2.5,59.99998800165726,
standard,soundFiles/1000Hz_-3dBFS_3s_44.1kHz.wav',None,1000,5,0,20,1,,,,,111.04295699999784,112.0433875000017,112.04377056000085,114.79333099999349,114.04311579999921,3.740596157958007,None,1,,113.04352469999867,elpida_27_10_23_ao_hugin_dots,001,2023-10-27_14h53.40.777,Oddball_task,2022.2.5,59.99998800165726,
standard,soundFiles/1000Hz_-3dBFS_3s_44.1kHz.wav',None,1000,5,1,21,2,,,,,114.79333099999349,115.79410069998994,115.7949420600009,118.7094197999977,117.80962509999517,3.9145187179039205,None,1,,,elpida_27_10_23_ao_hugin_dots,001,2023-10-27_14h53.40.777,Oddball_task,2022.2.5,59.99998800165726,
target,soundFiles/1200Hz_-3dBFS_3s_44.1kHz.wav',t,2000,5,2,22,3,,,,,118.7094197999977,119.7096259999962,119.71028635999683,121.7959775999916,121.7099254999921,3.0737915505935662,t,1,0.7104016999946907,,elpida_27_10_23_ao_hugin_dots,001,2023-10-27_14h53.40.777,Oddball_task,2022.2.5,59.99998800165726,
standard,soundFiles/1000Hz_-3dBFS_3s_44.1kHz.wav',None,1000,5,3,23,0,,,,,121.7959775999916,122.79344259999925,122.79279045998847,123.81040529999882,124.79324949999864,2.0030385245840083,None,1,,,elpida_27_10_23_ao_hugin_dots,001,2023-10-27_14h53.40.777,Oddball_task,2022.2.5,59.99998800165726,
standard,soundFiles/1000Hz_-3dBFS_3s_44.1kHz.wav',None,1000,6,0,24,0,,,,,124.79324949999864,125.79386039999372,125.79281425999507,128.45958300000348,127.79359560000012,3.655576460516945,None,1,,,elpida_27_10_23_ao_hugin_dots,001,2023-10-27_14h53.40.777,Oddball_task,2022.2.5,59.99998800165726,
standard,soundFiles/1000Hz_-3dBFS_3s_44.1kHz.wav',None,1000,6,1,25,1,,,,,128.45958300000348,129.45965779999096,129.45953396000112,131.90870559999894,131.45984860000317,3.4448788137312,None,1,,,elpida_27_10_23_ao_hugin_dots,001,2023-10-27_14h53.40.777,Oddball_task,2022.2.5,59.99998800165726,
standard,soundFiles/1000Hz_-3dBFS_3s_44.1kHz.wav',None,1000,6,2,26,2,,,,,131.90870559999894,132.90885389999312,132.90949165999626,134.00915220000024,134.91031769999245,2.1010040063536266,None,1,,,elpida_27_10_23_ao_hugin_dots,001,2023-10-27_14h53.40.777,Oddball_task,2022.2.5,59.99998800165726,
target,soundFiles/1200Hz_-3dBFS_3s_44.1kHz.wav',t,2000,6,3,27,3,,,,,134.91031769999245,135.90890189999482,135.90960965999255,136.9942691000033,137.90973319999466,2.0776241039756345,t,1,0.7703457000025082,,elpida_27_10_23_ao_hugin_dots,001,2023-10-27_14h53.40.777,Oddball_task,2022.2.5,59.99998800165726,
standard,soundFiles/1000Hz_-3dBFS_3s_44.1kHz.wav',None,1000,7,0,28,0,,,,,137.90973319999466,138.90937749999284,138.90900235999578,140.50827350000327,140.9079972000036,2.58641178534425,None,1,,,elpida_27_10_23_ao_hugin_dots,001,2023-10-27_14h53.40.777,Oddball_task,2022.2.5,59.99998800165726,
standard,soundFiles/1000Hz_-3dBFS_3s_44.1kHz.wav',None,1000,7,1,29,2,,,,,140.9079972000036,141.90854180000315,141.9125436599963,143.45906480000122,143.90845259999332,2.5357339853291565,None,1,,,elpida_27_10_23_ao_hugin_dots,001,2023-10-27_14h53.40.777,Oddball_task,2022.2.5,59.99998800165726,
standard,soundFiles/1000Hz_-3dBFS_3s_44.1kHz.wav',None,1000,7,2,30,1,,,,,143.90845259999332,144.90783009999723,144.90926005999353,147.49199280000175,146.90837809999357,3.5800455761244354,None,1,,,elpida_27_10_23_ao_hugin_dots,001,2023-10-27_14h53.40.777,Oddball_task,2022.2.5,59.99998800165726,
target,soundFiles/1200Hz_-3dBFS_3s_44.1kHz.wav',t,2000,7,3,31,3,,,,,147.49199280000175,148.47468649999064,148.47630695999686,150.2926543999929,150.4749320999981,2.7943429096374617,t,1,0.8404709000024013,149.4750287999923,elpida_27_10_23_ao_hugin_dots,001,2023-10-27_14h53.40.777,Oddball_task,2022.2.5,59.99998800165726,
standard,soundFiles/1000Hz_-3dBFS_3s_44.1kHz.wav',None,1000,8,0,32,2,,,,,150.4749320999981,151.4747642000002,151.4754366599911,152.94182629999705,153.47471860000223,2.4588318406557508,None,1,,,elpida_27_10_23_ao_hugin_dots,001,2023-10-27_14h53.40.777,Oddball_task,2022.2.5,59.99998800165726,
target,soundFiles/1200Hz_-3dBFS_3s_44.1kHz.wav',t,2000,8,1,33,3,,,,,153.47471860000223,154.47452099999646,154.4753794599921,156.32499989999633,156.47496859999956,2.839047896096223,t,1,0.8714728000049945,,elpida_27_10_23_ao_hugin_dots,001,2023-10-27_14h53.40.777,Oddball_task,2022.2.5,59.99998800165726,
standard,soundFiles/1000Hz_-3dBFS_3s_44.1kHz.wav',None,1000,8,2,34,1,,,,,156.47496859999956,157.47579899999255,157.47511095999943,159.4928096999938,159.4928096999938,3.0090849644360365,None,1,,,elpida_27_10_23_ao_hugin_dots,001,2023-10-27_14h53.40.777,Oddball_task,2022.2.5,59.99998800165726,
standard,soundFiles/1000Hz_-3dBFS_3s_44.1kHz.wav',None,1000,8,3,35,0,,,,,159.4928096999938,160.47422219999135,160.4749357599896,163.30742289999034,162.4744412,3.8027378365175086,None,1,,,elpida_27_10_23_ao_hugin_dots,001,2023-10-27_14h53.40.777,Oddball_task,2022.2.5,59.99998800165726,
standard,soundFiles/1000Hz_-3dBFS_3s_44.1kHz.wav',None,1000,9,0,36,1,,,,,163.30742289999034,164.30732890000218,164.3080073599951,165.7909684999904,166.3068246999901,2.4720545115151067,None,1,,,elpida_27_10_23_ao_hugin_dots,001,2023-10-27_14h53.40.777,Oddball_task,2022.2.5,59.99998800165726,
standard,soundFiles/1000Hz_-3dBFS_3s_44.1kHz.wav',None,1000,9,1,37,0,,,,,166.3068246999901,167.30734820000362,167.30910255999623,168.6916704999894,169.3068426999962,2.37366671821235,None,1,,,elpida_27_10_23_ao_hugin_dots,001,2023-10-27_14h53.40.777,Oddball_task,2022.2.5,59.99998800165726,
target,soundFiles/1200Hz_-3dBFS_3s_44.1kHz.wav',t,2000,9,2,38,3,,,,,169.3068426999962,170.29271110000263,170.29193335999588,172.1740754999919,172.3087788999983,2.8687755515826,t,1,0.7555922000028659,,elpida_27_10_23_ao_hugin_dots,001,2023-10-27_14h53.40.777,Oddball_task,2022.2.5,59.99998800165726,
standard,soundFiles/1000Hz_-3dBFS_3s_44.1kHz.wav',None,1000,9,3,39,2,,,,,172.3087788999983,173.30577539998922,173.30685105999436,174.79077219999454,175.30653760000132,2.476258129585517,None,1,,,elpida_27_10_23_ao_hugin_dots,001,2023-10-27_14h53.40.777,Oddball_task,2022.2.5,59.99998800165726,
standard,soundFiles/1000Hz_-3dBFS_3s_44.1kHz.wav',None,1000,10,0,40,1,,,,,175.30653760000132,176.30667510000058,176.30763055999267,177.57296769999084,178.30637320000096,2.2572535543769146,None,1,,,elpida_27_10_23_ao_hugin_dots,001,2023-10-27_14h53.40.777,Oddball_task,2022.2.5,59.99998800165726,
standard,soundFiles/1000Hz_-3dBFS_3s_44.1kHz.wav',None,1000,10,1,41,0,,,,,178.30637320000096,179.3063841999974,179.30790335998898,180.8244307999994,181.3063422999985,2.512050973805229,None,1,,,elpida_27_10_23_ao_hugin_dots,001,2023-10-27_14h53.40.777,Oddball_task,2022.2.5,59.99998800165726,
target,soundFiles/1200Hz_-3dBFS_3s_44.1kHz.wav',t,2000,10,2,42,3,,,,,181.3063422999985,182.30615309999848,182.30755935998894,183.77315209999506,184.3067458000005,2.4667370751683473,t,1,0.7350646999984747,183.30594639999617,elpida_27_10_23_ao_hugin_dots,001,2023-10-27_14h53.40.777,Oddball_task,2022.2.5,59.99998800165726,
standard,soundFiles/1000Hz_-3dBFS_3s_44.1kHz.wav',None,1000,10,3,43,2,,,,,184.3067458000005,185.307607499999,185.30781685999972,186.87373890000163,187.30576770000334,2.563361919770722,None,1,,,elpida_27_10_23_ao_hugin_dots,001,2023-10-27_14h53.40.777,Oddball_task,2022.2.5,59.99998800165726,
standard,soundFiles/1000Hz_-3dBFS_3s_44.1kHz.wav',None,1000,11,0,44,1,,,,,187.30576770000334,188.306041799995,188.30693455998988,189.5061507999926,190.30657190000056,2.1990607352025324,None,1,,,elpida_27_10_23_ao_hugin_dots,001,2023-10-27_14h53.40.777,Oddball_task,2022.2.5,59.99998800165726,
target,soundFiles/1200Hz_-3dBFS_3s_44.1kHz.wav',t,2000,11,1,45,3,,,,,190.30657190000056,191.30569169999217,191.30705145999235,193.03889999999956,193.30562420000206,2.7261913106329487,t,1,1.0103287000092678,,elpida_27_10_23_ao_hugin_dots,001,2023-10-27_14h53.40.777,Oddball_task,2022.2.5,59.99998800165726,
standard,soundFiles/1000Hz_-3dBFS_3s_44.1kHz.wav',None,1000,11,2,46,0,,,,,193.30562420000206,194.30561999999918,194.30713585999473,197.29011839999293,196.30497519999335,3.971434059401015,None,1,,,elpida_27_10_23_ao_hugin_dots,001,2023-10-27_14h53.40.777,Oddball_task,2022.2.5,59.99998800165726,
standard,soundFiles/1000Hz_-3dBFS_3s_44.1kHz.wav',None,1000,11,3,47,2,,,,,197.29011839999293,198.28989369999908,198.288628459991,200.70607289999316,200.28983080000035,3.4053993186925124,None,1,,,elpida_27_10_23_ao_hugin_dots,001,2023-10-27_14h53.40.777,Oddball_task,2022.2.5,59.99998800165726,
standard,soundFiles/1000Hz_-3dBFS_3s_44.1kHz.wav',None,1000,12,0,48,2,,,,,200.70607289999316,201.70646390000184,201.7074938599937,203.155270999996,203.70529450000322,2.4457073350776986,None,1,,,elpida_27_10_23_ao_hugin_dots,001,2023-10-27_14h53.40.777,Oddball_task,2022.2.5,59.99998800165726,
standard,soundFiles/1000Hz_-3dBFS_3s_44.1kHz.wav',None,1000,12,1,49,0,,,,,203.70529450000322,204.7071425000031,204.7056950599901,206.80433410000114,206.72116269999242,3.0977994217625637,None,1,,,elpida_27_10_23_ao_hugin_dots,001,2023-10-27_14h53.40.777,Oddball_task,2022.2.5,59.99998800165726,
standard,soundFiles/1000Hz_-3dBFS_3s_44.1kHz.wav',None,1000,12,2,50,1,,,,,206.80433410000114,207.8048296999914,207.80544055999343,210.57260849999147,209.8041871000023,3.7578594454440095,None,1,,,elpida_27_10_23_ao_hugin_dots,001,2023-10-27_14h53.40.777,Oddball_task,2022.2.5,59.99998800165726,
target,soundFiles/1200Hz_-3dBFS_3s_44.1kHz.wav',t,2000,12,3,51,3,,,,,210.57260849999147,211.5966003999929,211.57952845999824,213.3215332999971,213.60552889999235,2.744589805289779,t,1,0.9726047000003746,,elpida_27_10_23_ao_hugin_dots,001,2023-10-27_14h53.40.777,Oddball_task,2022.2.5,59.99998800165726,
standard,soundFiles/1000Hz_-3dBFS_3s_44.1kHz.wav',None,1000,13,0,52,1,,,,,213.60552889999235,214.60539250000147,214.60478925999922,217.53818899999897,216.60544729999674,3.9194456938709683,None,1,,215.60544529999606,elpida_27_10_23_ao_hugin_dots,001,2023-10-27_14h53.40.777,Oddball_task,2022.2.5,59.99998800165726,
target,soundFiles/1200Hz_-3dBFS_3s_44.1kHz.wav',t,2000,13,1,53,3,,,,,217.53818899999897,218.52255749999313,218.52285465999302,219.94387709999864,220.53755300000194,2.3651626183825165,t,1,1.0300377000094159,,elpida_27_10_23_ao_hugin_dots,001,2023-10-27_14h53.40.777,Oddball_task,2022.2.5,59.99998800165726,
standard,soundFiles/1000Hz_-3dBFS_3s_44.1kHz.wav',None,1000,13,2,54,0,,,,,220.53755300000194,221.53943900000013,221.54047045998885,224.13844889999018,223.5566739999922,3.5875524160507757,None,1,,,elpida_27_10_23_ao_hugin_dots,001,2023-10-27_14h53.40.777,Oddball_task,2022.2.5,59.99998800165726,
standard,soundFiles/1000Hz_-3dBFS_3s_44.1kHz.wav',None,1000,13,3,55,2,,,,,224.13844889999018,225.1373231000034,225.13870385998888,228.07038399999146,227.13861680000264,3.9226346014252167,None,1,,,elpida_27_10_23_ao_hugin_dots,001,2023-10-27_14h53.40.777,Oddball_task,2022.2.5,59.99998800165726,
standard,soundFiles/1000Hz_-3dBFS_3s_44.1kHz.wav',None,1000,14,0,56,2,,,,,228.07038399999146,229.0702622999961,229.07055675998998,230.98744250000163,231.07039229999646,2.9021691760467894,None,1,,,elpida_27_10_23_ao_hugin_dots,001,2023-10-27_14h53.40.777,Oddball_task,2022.2.5,59.99998800165726,
standard,soundFiles/1000Hz_-3dBFS_3s_44.1kHz.wav',None,1000,14,1,57,0,,,,,231.07039229999646,232.0699217999936,232.07088905998825,234.4539259000012,234.07006509999337,3.3760647809531292,None,1,,,elpida_27_10_23_ao_hugin_dots,001,2023-10-27_14h53.40.777,Oddball_task,2022.2.5,59.99998800165726,
standard,soundFiles/1000Hz_-3dBFS_3s_44.1kHz.wav',None,1000,14,2,58,1,,,,,234.4539259000012,235.4539911999891,235.45313595998886,236.7042400999926,237.45420999999624,2.240092584385945,None,1,,,elpida_27_10_23_ao_hugin_dots,001,2023-10-27_14h53.40.777,Oddball_task,2022.2.5,59.99998800165726,
target,soundFiles/1200Hz_-3dBFS_3s_44.1kHz.wav',t,2000,14,3,59,3,,,,,237.45420999999624,238.43605319999915,238.43985936000098,241.32021540000278,240.4396851999918,3.8634699233731458,t,1,0.8750479000009364,,elpida_27_10_23_ao_hugin_dots,001,2023-10-27_14h53.40.777,Oddball_task,2022.2.5,59.99998800165726,
target,soundFiles/1200Hz_-3dBFS_3s_44.1kHz.wav',t,2000,15,0,60,3,,,,,241.32021540000278,242.31986019999022,242.32076685998908,244.61914439999964,244.3197530999896,3.3010129591646313,t,1,1.411007899994729,,elpida_27_10_23_ao_hugin_dots,001,2023-10-27_14h53.40.777,Oddball_task,2022.2.5,59.99998800165726,
standard,soundFiles/1000Hz_-3dBFS_3s_44.1kHz.wav',None,1000,15,1,61,0,,,,,244.61914439999964,245.62008049999713,245.6204510599884,247.02200379999704,247.61978389999422,2.395711029150301,None,1,,,elpida_27_10_23_ao_hugin_dots,001,2023-10-27_14h53.40.777,Oddball_task,2022.2.5,59.99998800165726,
standard,soundFiles/1000Hz_-3dBFS_3s_44.1kHz.wav',None,1000,15,2,62,2,,,,,247.61978389999422,248.61996050000016,248.62053595999458,250.38657489999605,250.6203136999975,2.754594518740532,None,1,,,elpida_27_10_23_ao_hugin_dots,001,2023-10-27_14h53.40.777,Oddball_task,2022.2.5,59.99998800165726,
standard,soundFiles/1000Hz_-3dBFS_3s_44.1kHz.wav',None,1000,15,3,63,1,,,,,250.6203136999975,251.61937649999163,251.61979475999686,253.41895520000253,253.61866890000238,2.783998395037711,None,1,,,elpida_27_10_23_ao_hugin_dots,001,2023-10-27_14h53.40.777,Oddball_task,2022.2.5,59.99998800165726,
standard,soundFiles/1000Hz_-3dBFS_3s_44.1kHz.wav',None,1000,16,0,64,2,,,,,253.61866890000238,254.61900189999142,254.61917905999434,256.4524908000021,256.61941529999604,2.823006189738229,None,1,,,elpida_27_10_23_ao_hugin_dots,001,2023-10-27_14h53.40.777,Oddball_task,2022.2.5,59.99998800165726,
target,soundFiles/1200Hz_-3dBFS_3s_44.1kHz.wav',t,2000,16,1,65,3,,,,,256.61941529999604,257.6191208999953,257.6210324599917,258.66924999999173,259.61873819999164,2.0378412959330308,t,1,0.9126615999994101,,elpida_27_10_23_ao_hugin_dots,001,2023-10-27_14h53.40.777,Oddball_task,2022.2.5,59.99998800165726,
standard,soundFiles/1000Hz_-3dBFS_3s_44.1kHz.wav',None,1000,16,2,66,1,,,,,259.61873819999164,260.6197342999949,260.6211261599921,262.71867570000177,262.61864829999104,3.0966447300056448,None,1,,,elpida_27_10_23_ao_hugin_dots,001,2023-10-27_14h53.40.777,Oddball_task,2022.2.5,59.99998800165726,
standard,soundFiles/1000Hz_-3dBFS_3s_44.1kHz.wav',None,1000,16,3,67,0,,,,,262.71867570000177,263.7186115999939,263.72012506000027,265.6183732999925,265.71843139998964,2.892425763642512,None,1,,,elpida_27_10_23_ao_hugin_dots,001,2023-10-27_14h53.40.777,Oddball_task,2022.2.5,59.99998800165726,
target,soundFiles/1200Hz_-3dBFS_3s_44.1kHz.wav',t,2000,17,0,68,3,,,,,265.71843139998964,266.71829839999555,266.7197995599956,268.5033844999998,268.71923960000277,2.7730003502131746,t,1,0.8089924000087194,,elpida_27_10_23_ao_hugin_dots,001,2023-10-27_14h53.40.777,Oddball_task,2022.2.5,59.99998800165726,
standard,soundFiles/1000Hz_-3dBFS_3s_44.1kHz.wav',None,1000,17,1,69,0,,,,,268.71923960000277,269.71863809999195,269.71957785999547,271.2523818999907,271.7185252999916,2.5194697540945707,None,1,,,elpida_27_10_23_ao_hugin_dots,001,2023-10-27_14h53.40.777,Oddball_task,2022.2.5,59.99998800165726,
standard,soundFiles/1000Hz_-3dBFS_3s_44.1kHz.wav',None,1000,17,2,70,1,,,,,271.7185252999916,272.7183989999903,272.719552559992,274.5183825999993,274.71867889999703,2.788627875691695,None,1,,,elpida_27_10_23_ao_hugin_dots,001,2023-10-27_14h53.40.777,Oddball_task,2022.2.5,59.99998800165726,
standard,soundFiles/1000Hz_-3dBFS_3s_44.1kHz.wav',None,1000,17,3,71,2,,,,,274.71867889999703,275.7065767000022,275.70406636000115,276.7347258999944,277.71996239999135,2.0128854439448296,None,1,,,elpida_27_10_23_ao_hugin_dots,001,2023-10-27_14h53.40.777,Oddball_task,2022.2.5,59.99998800165726,
standard,soundFiles/1000Hz_-3dBFS_3s_44.1kHz.wav',None,1000,18,0,72,2,,,,,277.71996239999135,278.7185383999895,278.71815645999885,280.23475119999785,280.71991759999946,2.51404789654892,None,1,,,elpida_27_10_23_ao_hugin_dots,001,2023-10-27_14h53.40.777,Oddball_task,2022.2.5,59.99998800165726,
standard,soundFiles/1000Hz_-3dBFS_3s_44.1kHz.wav',None,1000,18,1,73,1,,,,,280.71991759999946,281.71800199999416,281.7174787599899,283.51750919999904,283.718913699995,2.7942231339576216,None,1,,282.7183270999958,elpida_27_10_23_ao_hugin_dots,001,2023-10-27_14h53.40.777,Oddball_task,2022.2.5,59.99998800165726,
standard,soundFiles/1000Hz_-3dBFS_3s_44.1kHz.wav',None,1000,18,2,74,0,,,,,283.718913699995,284.71761479999986,284.7175627599892,286.31845059999614,286.7179591000022,2.5895250150915388,None,1,,,elpida_27_10_23_ao_hugin_dots,001,2023-10-27_14h53.40.777,Oddball_task,2022.2.5,59.99998800165726,
target,soundFiles/1200Hz_-3dBFS_3s_44.1kHz.wav',t,2000,18,3,75,3,,,,,286.7179591000022,287.7181683999952,287.7177535600014,289.98455749999266,289.71830619999673,3.258240548159658,t,1,0.8448029999999562,,elpida_27_10_23_ao_hugin_dots,001,2023-10-27_14h53.40.777,Oddball_task,2022.2.5,59.99998800165726,
standard,soundFiles/1000Hz_-3dBFS_3s_44.1kHz.wav',None,1000,19,0,76,1,,,,,289.98455749999266,290.9848866999964,290.98377145999547,292.4661905999965,292.98446929999045,2.4813732299048255,None,1,,,elpida_27_10_23_ao_hugin_dots,001,2023-10-27_14h53.40.777,Oddball_task,2022.2.5,59.99998800165726,
standard,soundFiles/1000Hz_-3dBFS_3s_44.1kHz.wav',None,1000,19,1,77,2,,,,,292.98446929999045,293.9670432999992,293.9705518599905,296.6658720999985,295.9668770999997,3.675761857495478,None,1,,,elpida_27_10_23_ao_hugin_dots,001,2023-10-27_14h53.40.777,Oddball_task,2022.2.5,59.99998800165726,
standard,soundFiles/1000Hz_-3dBFS_3s_44.1kHz.wav',None,1000,19,2,78,0,,,,,296.6658720999985,297.666939799994,297.66747355999104,300.6513278999919,299.6677903999953,3.9756037129361,None,1,,298.66744859999744,elpida_27_10_23_ao_hugin_dots,001,2023-10-27_14h53.40.777,Oddball_task,2022.2.5,59.99998800165726,
target,soundFiles/1200Hz_-3dBFS_3s_44.1kHz.wav',t,2000,19,3,79,3,,,,,300.6513278999919,301.65184710000176,301.65013705999735,303.5508070999931,303.666575700001,2.896689690518853,t,1,0.8063330000004498,,elpida_27_10_23_ao_hugin_dots,001,2023-10-27_14h53.40.777,Oddball_task,2022.2.5,59.99998800165726,
standard,soundFiles/1000Hz_-3dBFS_3s_44.1kHz.wav',None,1000,20,0,80,0,,,,,303.666575700001,304.66586480000115,304.6667806599973,306.3499215999909,306.66634549999435,2.683680744951526,None,1,,,elpida_27_10_23_ao_hugin_dots,001,2023-10-27_14h53.40.777,Oddball_task,2022.2.5,59.99998800165726,
target,soundFiles/1200Hz_-3dBFS_3s_44.1kHz.wav',t,2000,20,1,81,3,,,,,306.66634549999435,307.6660622999916,307.6671298599933,308.9662499999977,309.6672885000007,2.29280394602553,t,1,1.0104551000113133,,elpida_27_10_23_ao_hugin_dots,001,2023-10-27_14h53.40.777,Oddball_task,2022.2.5,59.99998800165726,
standard,soundFiles/1000Hz_-3dBFS_3s_44.1kHz.wav',None,1000,20,2,82,1,,,,,309.6672885000007,310.66533809999237,310.66574265999515,312.61626070000057,312.66547909998917,2.9363853068825256,None,1,,,elpida_27_10_23_ao_hugin_dots,001,2023-10-27_14h53.40.777,Oddball_task,2022.2.5,59.99998800165726,
standard,soundFiles/1000Hz_-3dBFS_3s_44.1kHz.wav',None,1000,20,3,83,2,,,,,312.66547909998917,313.66548209999746,313.6664094599939,315.56511129999126,315.6657894999953,2.8852817635449357,None,1,,,elpida_27_10_23_ao_hugin_dots,001,2023-10-27_14h53.40.777,Oddball_task,2022.2.5,59.99998800165726,
standard,soundFiles/1000Hz_-3dBFS_3s_44.1kHz.wav',None,1000,21,0,84,1,,,,,315.6657894999953,316.6657986999926,316.66673495999856,318.98302610000246,318.6662163000001,3.3174636566837172,None,1,,,elpida_27_10_23_ao_hugin_dots,001,2023-10-27_14h53.40.777,Oddball_task,2022.2.5,59.99998800165726,
standard,soundFiles/1000Hz_-3dBFS_3s_44.1kHz.wav',None,1000,21,1,85,2,,,,,318.98302610000246,319.9842168000032,319.9829401599956,321.09995969999,321.9990332000016,2.108375745367744,None,1,,,elpida_27_10_23_ao_hugin_dots,001,2023-10-27_14h53.40.777,Oddball_task,2022.2.5,59.99998800165726,
target,soundFiles/1200Hz_-3dBFS_3s_44.1kHz.wav',t,2000,21,2,86,3,,,,,321.9990332000016,322.9988841000013,322.99957335998914,324.96546469999885,324.99783389999357,2.9554944868768995,t,1,0.8733094000053825,,elpida_27_10_23_ao_hugin_dots,001,2023-10-27_14h53.40.777,Oddball_task,2022.2.5,59.99998800165726,
standard,soundFiles/1000Hz_-3dBFS_3s_44.1kHz.wav',None,1000,21,3,87,0,,,,,324.99783389999357,325.9992207999894,325.9995793599912,327.3825254999974,327.99964439999894,2.3792452840775384,None,1,,,elpida_27_10_23_ao_hugin_dots,001,2023-10-27_14h53.40.777,Oddball_task,2022.2.5,59.99998800165726,
standard,soundFiles/1000Hz_-3dBFS_3s_44.1kHz.wav',None,1000,22,0,88,1,,,,,327.99964439999894,328.99814139999216,328.9987766599908,331.5670000999962,330.9988030999957,3.5554009458778215,None,1,,,elpida_27_10_23_ao_hugin_dots,001,2023-10-27_14h53.40.777,Oddball_task,2022.2.5,59.99998800165726,
standard,soundFiles/1000Hz_-3dBFS_3s_44.1kHz.wav',None,1000,22,1,89,0,,,,,331.5670000999962,332.56511489998957,332.56621545999514,334.16534859999956,334.5649718999921,2.5934162976981083,None,1,,,elpida_27_10_23_ao_hugin_dots,001,2023-10-27_14h53.40.777,Oddball_task,2022.2.5,59.99998800165726,
target,soundFiles/1200Hz_-3dBFS_3s_44.1kHz.wav',t,2000,22,2,90,3,,,,,334.5649718999921,335.5650655999925,335.5660601599913,338.115154500003,337.56390439999814,3.550440414688855,t,1,0.7405616999894846,336.5643689999997,elpida_27_10_23_ao_hugin_dots,001,2023-10-27_14h53.40.777,Oddball_task,2022.2.5,59.99998800165726,
standard,soundFiles/1000Hz_-3dBFS_3s_44.1kHz.wav',None,1000,22,3,91,2,,,,,338.115154500003,339.1152385000023,339.1147480600004,342.06635199999437,341.11494200000016,3.939763030414809,None,1,,,elpida_27_10_23_ao_hugin_dots,001,2023-10-27_14h53.40.777,Oddball_task,2022.2.5,59.99998800165726,
target,soundFiles/1200Hz_-3dBFS_3s_44.1kHz.wav',t,2000,23,0,92,3,,,,,342.06635199999437,343.0641637999943,343.0651648599989,344.8994223999907,345.06417050000164,2.8320720288634615,t,1,0.840027199999895,,elpida_27_10_23_ao_hugin_dots,001,2023-10-27_14h53.40.777,Oddball_task,2022.2.5,59.99998800165726,
standard,soundFiles/1000Hz_-3dBFS_3s_44.1kHz.wav',None,1000,23,1,93,0,,,,,345.06417050000164,346.0636175999971,346.06526575999595,348.5318944000028,348.0652162999904,3.4660134072080755,None,1,,,elpida_27_10_23_ao_hugin_dots,001,2023-10-27_14h53.40.777,Oddball_task,2022.2.5,59.99998800165726,
standard,soundFiles/1000Hz_-3dBFS_3s_44.1kHz.wav',None,1000,23,2,94,2,,,,,348.5318944000028,349.5307945999957,349.53233215999643,351.4149741000001,351.53081529999326,2.8761095701555757,None,1,,,elpida_27_10_23_ao_hugin_dots,001,2023-10-27_14h53.40.777,Oddball_task,2022.2.5,59.99998800165726,
standard,soundFiles/1000Hz_-3dBFS_3s_44.1kHz.wav',None,1000,23,3,95,1,,,,,351.53081529999326,352.53062540000246,352.531554559998,354.0963683000009,354.53067769999325,2.5578831247616067,None,1,,,elpida_27_10_23_ao_hugin_dots,001,2023-10-27_14h53.40.777,Oddball_task,2022.2.5,59.99998800165726,
standard,soundFiles/1000Hz_-3dBFS_3s_44.1kHz.wav',None,1000,24,0,96,1,,,,,354.53067769999325,355.531038000001,355.53161416000074,357.2507945999969,357.52976459999627,2.7173205074705034,None,1,,,elpida_27_10_23_ao_hugin_dots,001,2023-10-27_14h53.40.777,Oddball_task,2022.2.5,59.99998800165726,
standard,soundFiles/1000Hz_-3dBFS_3s_44.1kHz.wav',None,1000,24,1,97,2,,,,,357.52976459999627,358.53049889999966,358.531299859994,360.8804502999992,360.5301016000012,3.336570548891819,None,1,,,elpida_27_10_23_ao_hugin_dots,001,2023-10-27_14h53.40.777,Oddball_task,2022.2.5,59.99998800165726,
target,soundFiles/1200Hz_-3dBFS_3s_44.1kHz.wav',t,2000,24,2,98,3,,,,,360.8804502999992,361.88081709999824,361.88022875999303,363.8136620000005,363.88103540000156,2.930493288338826,t,1,0.9085785999923246,,elpida_27_10_23_ao_hugin_dots,001,2023-10-27_14h53.40.777,Oddball_task,2022.2.5,59.99998800165726,
standard,soundFiles/1000Hz_-3dBFS_3s_44.1kHz.wav',None,1000,24,3,99,0,,,,,363.88103540000156,364.8794273999956,364.87923205999977,366.81559549999656,366.8818542999943,2.9251470294022477,None,1,,,elpida_27_10_23_ao_hugin_dots,001,2023-10-27_14h53.40.777,Oddball_task,2022.2.5,59.99998800165726,
standard,soundFiles/1000Hz_-3dBFS_3s_44.1kHz.wav',None,1000,25,0,100,2,,,,,366.8818542999943,367.8794724999898,367.8791681599934,370.4629571999976,369.8800732999953,3.577462413282321,None,1,,,elpida_27_10_23_ao_hugin_dots,001,2023-10-27_14h53.40.777,Oddball_task,2022.2.5,59.99998800165726,
standard,soundFiles/1000Hz_-3dBFS_3s_44.1kHz.wav',None,1000,25,1,101,1,,,,,370.4629571999976,371.46358789999795,371.46370206000137,373.08026599998993,373.4629567999946,2.604809806215052,None,1,,,elpida_27_10_23_ao_hugin_dots,001,2023-10-27_14h53.40.777,Oddball_task,2022.2.5,59.99998800165726,
target,soundFiles/1200Hz_-3dBFS_3s_44.1kHz.wav',t,2000,25,2,102,3,,,,,373.4629567999946,374.4631822999945,374.464911459999,375.9282654999988,376.4628176999977,2.462621561928386,t,1,0.76842750000651,,elpida_27_10_23_ao_hugin_dots,001,2023-10-27_14h53.40.777,Oddball_task,2022.2.5,59.99998800165726,
standard,soundFiles/1000Hz_-3dBFS_3s_44.1kHz.wav',None,1000,25,3,103,0,,,,,376.4628176999977,377.4630776999984,377.4638494599887,379.2799318000034,379.4636154000036,2.802017787077756,None,1,,,elpida_27_10_23_ao_hugin_dots,001,2023-10-27_14h53.40.777,Oddball_task,2022.2.5,59.99998800165726,
standard,soundFiles/1000Hz_-3dBFS_3s_44.1kHz.wav',None,1000,26,0,104,2,,,,,379.4636154000036,380.4626488999929,380.4634144599942,382.89604079999845,382.46304399998917,3.418260074380289,None,1,,,elpida_27_10_23_ao_hugin_dots,001,2023-10-27_14h53.40.777,Oddball_task,2022.2.5,59.99998800165726,
target,soundFiles/1200Hz_-3dBFS_3s_44.1kHz.wav',t,2000,26,1,105,3,,,,,382.89604079999845,383.8956741000002,383.8962811600024,384.9625335000019,385.89520659999107,2.052909108720706,t,1,0.8617817000049399,,elpida_27_10_23_ao_hugin_dots,001,2023-10-27_14h53.40.777,Oddball_task,2022.2.5,59.99998800165726,
standard,soundFiles/1000Hz_-3dBFS_3s_44.1kHz.wav',None,1000,26,2,106,0,,,,,385.89520659999107,386.89530459999514,386.89655355999565,388.8451084999979,388.89509720000206,2.943667840441808,None,1,,,elpida_27_10_23_ao_hugin_dots,001,2023-10-27_14h53.40.777,Oddball_task,2022.2.5,59.99998800165726,
standard,soundFiles/1000Hz_-3dBFS_3s_44.1kHz.wav',None,1000,26,3,107,1,,,,,388.89509720000206,389.8953538999922,389.8963324600001,391.41405880000093,391.89684619999025,2.5135026138306906,None,1,,,elpida_27_10_23_ao_hugin_dots,001,2023-10-27_14h53.40.777,Oddball_task,2022.2.5,59.99998800165726,
standard,soundFiles/1000Hz_-3dBFS_3s_44.1kHz.wav',None,1000,27,0,108,1,,,,,391.89684619999025,392.8955505999911,392.89622495999646,395.31277629999386,394.89531379999244,3.415129700379074,None,1,,393.89533489999303,elpida_27_10_23_ao_hugin_dots,001,2023-10-27_14h53.40.777,Oddball_task,2022.2.5,59.99998800165726,
standard,soundFiles/1000Hz_-3dBFS_3s_44.1kHz.wav',None,1000,27,1,109,2,,,,,395.31277629999386,396.31233869999414,396.31162675999366,398.5949457999959,398.32762840000214,3.280785467914385,None,1,,397.3126895000023,elpida_27_10_23_ao_hugin_dots,001,2023-10-27_14h53.40.777,Oddball_task,2022.2.5,59.99998800165726,
target,soundFiles/1200Hz_-3dBFS_3s_44.1kHz.wav',t,2000,27,2,110,3,,,,,398.5949457999959,399.59472759999335,399.5949563599963,402.34661219999543,401.5945791999984,3.740495871977422,t,1,0.7966095000010682,,elpida_27_10_23_ao_hugin_dots,001,2023-10-27_14h53.40.777,Oddball_task,2022.2.5,59.99998800165726,
standard,soundFiles/1000Hz_-3dBFS_3s_44.1kHz.wav',None,1000,27,3,111,0,,,,,402.34661219999543,403.34667620000255,403.3447290599972,404.3788715999981,405.36124139999447,2.0283287870161306,None,1,,,elpida_27_10_23_ao_hugin_dots,001,2023-10-27_14h53.40.777,Oddball_task,2022.2.5,59.99998800165726,
standard,soundFiles/1000Hz_-3dBFS_3s_44.1kHz.wav',None,1000,28,0,112,0,,,,,405.36124139999447,406.3616422999912,406.36133625999645,407.49455950000265,408.39633350000076,2.131673548306421,None,1,,,elpida_27_10_23_ao_hugin_dots,001,2023-10-27_14h53.40.777,Oddball_task,2022.2.5,59.99998800165726,
standard,soundFiles/1000Hz_-3dBFS_3s_44.1kHz.wav',None,1000,28,1,113,1,,,,,408.39633350000076,409.3781592000014,409.3780505599963,410.5783498999954,411.39669819999835,2.176611197387378,None,1,,,elpida_27_10_23_ao_hugin_dots,001,2023-10-27_14h53.40.777,Oddball_task,2022.2.5,59.99998800165726,
standard,soundFiles/1000Hz_-3dBFS_3s_44.1kHz.wav',None,1000,28,2,114,2,,,,,411.39669819999835,412.3952244999964,412.3951799599992,414.1772051000007,414.3950651999912,2.77948500175796,None,1,,413.3937952999986,elpida_27_10_23_ao_hugin_dots,001,2023-10-27_14h53.40.777,Oddball_task,2022.2.5,59.99998800165726,
target,soundFiles/1200Hz_-3dBFS_3s_44.1kHz.wav',t,2000,28,3,115,3,,,,,414.3950651999912,415.39377680000325,415.3953859599962,416.4118021999893,417.3947322000022,2.002120762473056,t,1,0.8612141999910818,,elpida_27_10_23_ao_hugin_dots,001,2023-10-27_14h53.40.777,Oddball_task,2022.2.5,59.99998800165726,
target,soundFiles/1200Hz_-3dBFS_3s_44.1kHz.wav',t,2000,29,0,116,3,,,,,417.3947322000022,418.3938475000032,418.39441985998855,419.92827379998926,420.39340689999517,2.532238134296835,t,1,1.0124328999954741,,elpida_27_10_23_ao_hugin_dots,001,2023-10-27_14h53.40.777,Oddball_task,2022.2.5,59.99998800165726,
standard,soundFiles/1000Hz_-3dBFS_3s_44.1kHz.wav',None,1000,29,1,117,2,,,,,420.39340689999517,421.3936051999917,421.39573456000215,422.89445399999386,423.3928099999903,2.495876267100412,None,1,,,elpida_27_10_23_ao_hugin_dots,001,2023-10-27_14h53.40.777,Oddball_task,2022.2.5,59.99998800165726,
standard,soundFiles/1000Hz_-3dBFS_3s_44.1kHz.wav',None,1000,29,2,118,0,,,,,423.3928099999903,424.3775886999938,424.3782875599965,425.5103145999892,426.3781217999931,2.1024209473907423,None,1,,,elpida_27_10_23_ao_hugin_dots,001,2023-10-27_14h53.40.777,Oddball_task,2022.2.5,59.99998800165726,
standard,soundFiles/1000Hz_-3dBFS_3s_44.1kHz.wav',None,1000,29,3,119,1,,,,,426.3781217999931,427.359749700001,427.36131545999814,428.5107560000033,429.35898949998955,2.131337478998767,None,1,,,elpida_27_10_23_ao_hugin_dots,001,2023-10-27_14h53.40.777,Oddball_task,2022.2.5,59.99998800165726,
standard,soundFiles/1000Hz_-3dBFS_3s_44.1kHz.wav',None,1000,30,0,120,2,,,,,429.35898949998955,430.36003709999204,430.3618820599906,432.5268714999984,432.3599549999926,3.1686184738785745,None,1,,,elpida_27_10_23_ao_hugin_dots,001,2023-10-27_14h53.40.777,Oddball_task,2022.2.5,59.99998800165726,
standard,soundFiles/1000Hz_-3dBFS_3s_44.1kHz.wav',None,1000,30,1,121,0,,,,,432.5268714999984,433.5259223999892,433.52753625998884,434.79229230000055,435.5255233999924,2.2657264717916457,None,1,,,elpida_27_10_23_ao_hugin_dots,001,2023-10-27_14h53.40.777,Oddball_task,2022.2.5,59.99998800165726,
target,soundFiles/1200Hz_-3dBFS_3s_44.1kHz.wav',t,2000,30,2,122,3,,,,,435.5255233999924,436.52623609999137,436.52662295999033,439.10940659999324,438.5268066999997,3.5730903138874033,t,1,0.8598403999931179,,elpida_27_10_23_ao_hugin_dots,001,2023-10-27_14h53.40.777,Oddball_task,2022.2.5,59.99998800165726,
standard,soundFiles/1000Hz_-3dBFS_3s_44.1kHz.wav',None,1000,30,3,123,1,,,,,439.10940659999324,440.0930159999989,440.09460285999666,442.17801819999295,442.0936875999905,3.0633608847943137,None,1,,,elpida_27_10_23_ao_hugin_dots,001,2023-10-27_14h53.40.777,Oddball_task,2022.2.5,59.99998800165726,
standard,soundFiles/1000Hz_-3dBFS_3s_44.1kHz.wav',None,1000,31,0,124,0,,,,,442.17801819999295,443.17700270000205,443.17839915999065,445.07642879999185,445.193111200002,2.897592564848535,None,1,,,elpida_27_10_23_ao_hugin_dots,001,2023-10-27_14h53.40.777,Oddball_task,2022.2.5,59.99998800165726,
target,soundFiles/1200Hz_-3dBFS_3s_44.1kHz.wav',t,2000,31,1,125,3,,,,,445.193111200002,446.19242039999517,446.1931713600017,448.52601770000183,448.1911046000023,3.3220580944369553,t,1,1.0770091000013053,447.1915714999923,elpida_27_10_23_ao_hugin_dots,001,2023-10-27_14h53.40.777,Oddball_task,2022.2.5,59.99998800165726,
standard,soundFiles/1000Hz_-3dBFS_3s_44.1kHz.wav',None,1000,31,2,126,2,,,,,448.52601770000183,449.52569749999384,449.52703295999817,451.92549110000255,451.52679750000243,3.3963796692416857,None,1,,,elpida_27_10_23_ao_hugin_dots,001,2023-10-27_14h53.40.777,Oddball_task,2022.2.5,59.99998800165726,
standard,soundFiles/1000Hz_-3dBFS_3s_44.1kHz.wav',None,1000,31,3,127,1,,,,,451.92549110000255,452.9136700999952,452.91212055999057,455.5258310999925,454.9260343999922,3.6009703881903734,None,1,,,elpida_27_10_23_ao_hugin_dots,001,2023-10-27_14h53.40.777,Oddball_task,2022.2.5,59.99998800165726,
target,soundFiles/1200Hz_-3dBFS_3s_44.1kHz.wav',t,2000,32,0,128,3,,,,,455.5258310999925,456.5259068000014,456.52554675998834,458.75901979999617,458.5407470999926,3.2330957008157917,t,1,1.206357700008084,,elpida_27_10_23_ao_hugin_dots,001,2023-10-27_14h53.40.777,Oddball_task,2022.2.5,59.99998800165726,
standard,soundFiles/1000Hz_-3dBFS_3s_44.1kHz.wav',None,1000,32,1,129,1,,,,,458.75901979999617,459.7587637999968,459.75894405999423,460.79349009999714,461.7608882999921,2.0300835162030895,None,1,,460.7623356999975,elpida_27_10_23_ao_hugin_dots,001,2023-10-27_14h53.40.777,Oddball_task,2022.2.5,59.99998800165726,
standard,soundFiles/1000Hz_-3dBFS_3s_44.1kHz.wav',None,1000,32,2,130,2,,,,,461.7608882999921,462.75884439999936,462.75798766000224,465.7254869000026,464.75951779999014,3.962424302245206,None,1,,,elpida_27_10_23_ao_hugin_dots,001,2023-10-27_14h53.40.777,Oddball_task,2022.2.5,59.99998800165726,
standard,soundFiles/1000Hz_-3dBFS_3s_44.1kHz.wav',None,1000,32,3,131,0,,,,,465.7254869000026,466.70947929999966,466.7103336599932,469.10883759999706,468.7256905999966,3.3805749772636764,None,1,,,elpida_27_10_23_ao_hugin_dots,001,2023-10-27_14h53.40.777,Oddball_task,2022.2.5,59.99998800165726,
standard,soundFiles/1000Hz_-3dBFS_3s_44.1kHz.wav',None,1000,33,0,132,2,,,,,469.10883759999706,470.10744310000155,470.10737565999005,471.84144819999347,472.1073342000018,2.7178333051261303,None,1,,,elpida_27_10_23_ao_hugin_dots,001,2023-10-27_14h53.40.777,Oddball_task,2022.2.5,59.99998800165726,
standard,soundFiles/1000Hz_-3dBFS_3s_44.1kHz.wav',None,1000,33,1,133,0,,,,,472.1073342000018,473.10743869999715,473.108574559995,475.8258238999988,475.1093045000016,3.718282736507096,None,1,,,elpida_27_10_23_ao_hugin_dots,001,2023-10-27_14h53.40.777,Oddball_task,2022.2.5,59.99998800165726,
target,soundFiles/1200Hz_-3dBFS_3s_44.1kHz.wav',t,2000,33,2,134,3,,,,,475.8258238999988,476.8249436999904,476.82445075999857,478.8418931999913,478.8418931999913,2.9758157908759744,t,1,1.1123023999971338,,elpida_27_10_23_ao_hugin_dots,001,2023-10-27_14h53.40.777,Oddball_task,2022.2.5,59.99998800165726,
standard,soundFiles/1000Hz_-3dBFS_3s_44.1kHz.wav',None,1000,33,3,135,1,,,,,478.8418931999913,479.82494659999793,479.8250068599984,481.8913649000024,481.8246938999946,3.0354353116565456,None,1,,,elpida_27_10_23_ao_hugin_dots,001,2023-10-27_14h53.40.777,Oddball_task,2022.2.5,59.99998800165726,
standard,soundFiles/1000Hz_-3dBFS_3s_44.1kHz.wav',None,1000,34,0,136,2,,,,,481.8913649000024,482.89092219999293,482.8905389599924,485.6412905999896,484.8934722999984,3.7403323378305053,None,1,,,elpida_27_10_23_ao_hugin_dots,001,2023-10-27_14h53.40.777,Oddball_task,2022.2.5,59.99998800165726,
standard,soundFiles/1000Hz_-3dBFS_3s_44.1kHz.wav',None,1000,34,1,137,0,,,,,485.6412905999896,486.6405337999895,486.6402089599971,489.3399992999912,488.639763500003,3.685342837739748,None,1,,,elpida_27_10_23_ao_hugin_dots,001,2023-10-27_14h53.40.777,Oddball_task,2022.2.5,59.99998800165726,
target,soundFiles/1200Hz_-3dBFS_3s_44.1kHz.wav',t,2000,34,2,138,3,,,,,489.3399992999912,490.3398113000003,490.341558159994,491.97352059998957,492.34138499999244,2.6234903489562456,t,1,1.0413630999973975,,elpida_27_10_23_ao_hugin_dots,001,2023-10-27_14h53.40.777,Oddball_task,2022.2.5,59.99998800165726,
standard,soundFiles/1000Hz_-3dBFS_3s_44.1kHz.wav',None,1000,34,3,139,1,,,,,492.34138499999244,493.3430909000017,493.34068635999137,495.3066894999938,495.3586035999906,2.9608783935837533,None,1,,,elpida_27_10_23_ao_hugin_dots,001,2023-10-27_14h53.40.777,Oddball_task,2022.2.5,59.99998800165726,
standard,soundFiles/1000Hz_-3dBFS_3s_44.1kHz.wav',None,1000,35,0,140,1,,,,,495.3586035999906,496.3416567999957,496.34135495998925,498.73939069999324,498.3553677000018,3.3806734911339786,None,1,,,elpida_27_10_23_ao_hugin_dots,001,2023-10-27_14h53.40.777,Oddball_task,2022.2.5,59.99998800165726,
standard,soundFiles/1000Hz_-3dBFS_3s_44.1kHz.wav',None,1000,35,1,141,2,,,,,498.73939069999324,499.7235518999951,499.72394765998905,501.0725306999957,501.7222857000015,2.3334120970527534,None,1,,,elpida_27_10_23_ao_hugin_dots,001,2023-10-27_14h53.40.777,Oddball_task,2022.2.5,59.99998800165726,
target,soundFiles/1200Hz_-3dBFS_3s_44.1kHz.wav',t,2000,35,2,142,3,,,,,501.7222857000015,502.72282709999126,502.72429205999214,504.30730999998923,504.72288999999,2.5814729302592045,t,1,0.8583616999967489,,elpida_27_10_23_ao_hugin_dots,001,2023-10-27_14h53.40.777,Oddball_task,2022.2.5,59.99998800165726,
standard,soundFiles/1000Hz_-3dBFS_3s_44.1kHz.wav',None,1000,35,3,143,0,,,,,504.72288999999,505.7228478999896,505.723585859999,507.7069795999996,507.7228688999894,2.9751018533868017,None,1,,,elpida_27_10_23_ao_hugin_dots,001,2023-10-27_14h53.40.777,Oddball_task,2022.2.5,59.99998800165726,
standard,soundFiles/1000Hz_-3dBFS_3s_44.1kHz.wav',None,1000,36,0,144,0,,,,,507.7228688999894,508.7058604999911,508.708235659996,511.2892998000025,510.7456988999911,3.5468291694255862,None,1,,,elpida_27_10_23_ao_hugin_dots,001,2023-10-27_14h53.40.777,Oddball_task,2022.2.5,59.99998800165726,
target,soundFiles/1200Hz_-3dBFS_3s_44.1kHz.wav',t,2000,36,1,145,3,,,,,511.2892998000025,512.2735541000002,512.2731265599971,514.9068964000035,514.2745949999953,3.607130638589351,t,1,0.9421180000063032,,elpida_27_10_23_ao_hugin_dots,001,2023-10-27_14h53.40.777,Oddball_task,2022.2.5,59.99998800165726,
standard,soundFiles/1000Hz_-3dBFS_3s_44.1kHz.wav',None,1000,36,2,146,1,,,,,514.9068964000035,515.9064533999917,515.9054967599907,517.0396575999912,517.9216111999995,2.12762259940214,None,1,,,elpida_27_10_23_ao_hugin_dots,001,2023-10-27_14h53.40.777,Oddball_task,2022.2.5,59.99998800165726,
standard,soundFiles/1000Hz_-3dBFS_3s_44.1kHz.wav',None,1000,36,3,147,2,,,,,517.9216111999995,518.9220298,518.9227439599883,521.0883272999927,520.9220218999981,3.156088831658086,None,1,,,elpida_27_10_23_ao_hugin_dots,001,2023-10-27_14h53.40.777,Oddball_task,2022.2.5,59.99998800165726,
standard,soundFiles/1000Hz_-3dBFS_3s_44.1kHz.wav',None,1000,37,0,148,2,,,,,521.0883272999927,522.0874751999945,522.0885297599991,525.0222323999915,524.0875483999989,3.9191403485177094,None,1,,523.0889817999996,elpida_27_10_23_ao_hugin_dots,001,2023-10-27_14h53.40.777,Oddball_task,2022.2.5,59.99998800165726,
target,soundFiles/1200Hz_-3dBFS_3s_44.1kHz.wav',t,2000,37,1,149,3,,,,,525.0222323999915,526.0226881999988,526.023601160002,527.786852499994,528.0218316999963,2.753786832588729,t,1,0.7953750000015134,,elpida_27_10_23_ao_hugin_dots,001,2023-10-27_14h53.40.777,Oddball_task,2022.2.5,59.99998800165726,
standard,soundFiles/1000Hz_-3dBFS_3s_44.1kHz.wav',None,1000,37,2,150,1,,,,,528.0218316999963,529.0208893999952,529.0214053600023,530.6046502999961,531.0213493999909,2.583345912204135,None,1,,,elpida_27_10_23_ao_hugin_dots,001,2023-10-27_14h53.40.777,Oddball_task,2022.2.5,59.99998800165726,
standard,soundFiles/1000Hz_-3dBFS_3s_44.1kHz.wav',None,1000,37,3,151,0,,,,,531.0213493999909,532.0206803999899,532.0208277599988,533.2231611000025,534.021352900003,2.1937255720168967,None,1,,,elpida_27_10_23_ao_hugin_dots,001,2023-10-27_14h53.40.777,Oddball_task,2022.2.5,59.99998800165726,
target,soundFiles/1200Hz_-3dBFS_3s_44.1kHz.wav',t,2000,38,0,152,3,,,,,534.021352900003,535.0208668999985,535.0225010599927,536.9708288999973,537.0208352999907,2.9488629365896117,t,1,0.8729408000071999,,elpida_27_10_23_ao_hugin_dots,001,2023-10-27_14h53.40.777,Oddball_task,2022.2.5,59.99998800165726,
standard,soundFiles/1000Hz_-3dBFS_3s_44.1kHz.wav',None,1000,38,1,153,0,,,,,537.0208352999907,538.021954900003,538.0206327599983,539.7235156999959,540.0736242999992,2.688455580255015,None,1,,,elpida_27_10_23_ao_hugin_dots,001,2023-10-27_14h53.40.777,Oddball_task,2022.2.5,59.99998800165726,
standard,soundFiles/1000Hz_-3dBFS_3s_44.1kHz.wav',None,1000,38,2,154,2,,,,,540.0736242999992,541.0372348999954,541.0384633599999,542.9541414999985,543.036189099992,2.875753048839236,None,1,,,elpida_27_10_23_ao_hugin_dots,001,2023-10-27_14h53.40.777,Oddball_task,2022.2.5,59.99998800165726,
standard,soundFiles/1000Hz_-3dBFS_3s_44.1kHz.wav',None,1000,38,3,155,1,,,,,543.036189099992,544.0367922000005,544.0377895599916,545.3879667000001,546.0371190000005,2.3379572009769705,None,1,,,elpida_27_10_23_ao_hugin_dots,001,2023-10-27_14h53.40.777,Oddball_task,2022.2.5,59.99998800165726,
standard,soundFiles/1000Hz_-3dBFS_3s_44.1kHz.wav',None,1000,39,0,156,1,,,,,546.0371190000005,547.0365783000016,547.0382393599969,548.6376935000008,549.038500900002,2.60040815126439,None,1,,,elpida_27_10_23_ao_hugin_dots,001,2023-10-27_14h53.40.777,Oddball_task,2022.2.5,59.99998800165726,
target,soundFiles/1200Hz_-3dBFS_3s_44.1kHz.wav',t,2000,39,1,157,3,,,,,549.038500900002,550.0367138000001,550.0374967599885,552.6538411999936,552.0368387999915,3.6150745929182415,t,1,0.8633411999908276,551.0370457999961,elpida_27_10_23_ao_hugin_dots,001,2023-10-27_14h53.40.777,Oddball_task,2022.2.5,59.99998800165726,
standard,soundFiles/1000Hz_-3dBFS_3s_44.1kHz.wav',None,1000,39,2,158,2,,,,,552.6538411999936,553.653158999994,553.6531789599933,554.9036724999896,555.6538669000001,2.247281699769359,None,1,,,elpida_27_10_23_ao_hugin_dots,001,2023-10-27_14h53.40.777,Oddball_task,2022.2.5,59.99998800165726,
standard,soundFiles/1000Hz_-3dBFS_3s_44.1kHz.wav',None,1000,39,3,159,0,,,,,555.6538669000001,556.6532061000034,556.6533916599976,559.452838199999,558.6533666999894,3.792785853110014,None,1,,,elpida_27_10_23_ao_hugin_dots,001,2023-10-27_14h53.40.777,Oddball_task,2022.2.5,59.99998800165726,
standard,soundFiles/1000Hz_-3dBFS_3s_44.1kHz.wav',None,1000,40,0,160,2,,,,,559.452838199999,560.4362429999892,560.4371649600027,563.4024019999924,562.4353342999966,3.9453810662223656,None,1,,,elpida_27_10_23_ao_hugin_dots,001,2023-10-27_14h53.40.777,Oddball_task,2022.2.5,59.99998800165726,
standard,soundFiles/1000Hz_-3dBFS_3s_44.1kHz.wav',None,1000,40,1,161,0,,,,,563.4024019999924,564.4027174999937,564.4032914599914,567.386811999997,566.4020017000003,3.973620149279521,None,1,,,elpida_27_10_23_ao_hugin_dots,001,2023-10-27_14h53.40.777,Oddball_task,2022.2.5,59.99998800165726,
target,soundFiles/1200Hz_-3dBFS_3s_44.1kHz.wav',t,2000,40,2,162,3,,,,,567.386811999997,568.3695335999946,568.3700801600019,571.3028268999915,570.3695452999964,3.908186896327664,t,1,0.8645643999916501,569.3692562999931,elpida_27_10_23_ao_hugin_dots,001,2023-10-27_14h53.40.777,Oddball_task,2022.2.5,59.99998800165726,
standard,soundFiles/1000Hz_-3dBFS_3s_44.1kHz.wav',None,1000,40,3,163,1,,,,,571.3028268999915,572.3029415999918,572.303428659997,573.5025013999984,574.3034692999936,2.1845266995437482,None,1,,,elpida_27_10_23_ao_hugin_dots,001,2023-10-27_14h53.40.777,Oddball_task,2022.2.5,59.99998800165726,
standard,soundFiles/1000Hz_-3dBFS_3s_44.1kHz.wav',None,1000,41,0,164,1,,,,,574.3034692999936,575.3025342999899,575.3031886599886,576.4685350999935,577.3024138999899,2.1499770502948827,None,1,,,elpida_27_10_23_ao_hugin_dots,001,2023-10-27_14h53.40.777,Oddball_task,2022.2.5,59.99998800165726,
target,soundFiles/1200Hz_-3dBFS_3s_44.1kHz.wav',t,2000,41,1,165,3,,,,,577.3024138999899,578.3020582000026,578.302374859991,580.2528917000018,580.3014807,2.947457765433197,t,1,0.9590606999990996,,elpida_27_10_23_ao_hugin_dots,001,2023-10-27_14h53.40.777,Oddball_task,2022.2.5,59.99998800165726,
standard,soundFiles/1000Hz_-3dBFS_3s_44.1kHz.wav',None,1000,41,2,166,0,,,,,580.3014807,581.301888499991,581.3033676599982,584.1351905999909,583.3030720999959,3.827697177143623,None,1,,,elpida_27_10_23_ao_hugin_dots,001,2023-10-27_14h53.40.777,Oddball_task,2022.2.5,59.99998800165726,
standard,soundFiles/1000Hz_-3dBFS_3s_44.1kHz.wav',None,1000,41,3,167,2,,,,,584.1351905999909,585.1350963000004,585.1362401600011,586.6392883999943,587.1535640999937,2.492747768443885,None,1,,,elpida_27_10_23_ao_hugin_dots,001,2023-10-27_14h53.40.777,Oddball_task,2022.2.5,59.99998800165726,
target,soundFiles/1200Hz_-3dBFS_3s_44.1kHz.wav',t,2000,42,0,168,3,,,,,587.1535640999937,588.1366559000016,588.1363300600017,589.6868466000014,590.1520849999943,2.5334875088765436,t,1,0.9666334999928949,,elpida_27_10_23_ao_hugin_dots,001,2023-10-27_14h53.40.777,Oddball_task,2022.2.5,59.99998800165726,
standard,soundFiles/1000Hz_-3dBFS_3s_44.1kHz.wav',None,1000,42,1,169,1,,,,,590.1520849999943,591.1516605999932,591.1523336599887,592.3173223999911,593.1509149999911,2.1590942538171616,None,1,,,elpida_27_10_23_ao_hugin_dots,001,2023-10-27_14h53.40.777,Oddball_task,2022.2.5,59.99998800165726,
standard,soundFiles/1000Hz_-3dBFS_3s_44.1kHz.wav',None,1000,42,2,170,2,,,,,593.1509149999911,594.1365749999968,594.1357868599982,596.770703599992,596.150951699994,3.616176352784556,None,1,,,elpida_27_10_23_ao_hugin_dots,001,2023-10-27_14h53.40.777,Oddball_task,2022.2.5,59.99998800165726,
standard,soundFiles/1000Hz_-3dBFS_3s_44.1kHz.wav',None,1000,42,3,171,0,,,,,596.770703599992,597.7685303999897,597.7674101599944,598.9511684000026,599.7695392000023,2.17071343548356,None,1,,,elpida_27_10_23_ao_hugin_dots,001,2023-10-27_14h53.40.777,Oddball_task,2022.2.5,59.99998800165726,
standard,soundFiles/1000Hz_-3dBFS_3s_44.1kHz.wav',None,1000,43,0,172,2,,,,,599.7695392000023,600.7677432999917,600.7670465599906,601.8015963999933,602.768687799995,2.019616651443642,None,1,,,elpida_27_10_23_ao_hugin_dots,001,2023-10-27_14h53.40.777,Oddball_task,2022.2.5,59.99998800165726,
standard,soundFiles/1000Hz_-3dBFS_3s_44.1kHz.wav',None,1000,43,1,173,0,,,,,602.768687799995,603.7502909999894,603.7519019599961,605.4724848999904,605.7677373999904,2.662235817585221,None,1,,,elpida_27_10_23_ao_hugin_dots,001,2023-10-27_14h53.40.777,Oddball_task,2022.2.5,59.99998800165726,
target,soundFiles/1200Hz_-3dBFS_3s_44.1kHz.wav',t,2000,43,2,174,3,,,,,605.7677373999904,606.751617499991,606.7514729599891,608.2173351999954,608.7662192999996,2.4431953571921428,t,1,1.5324181000032695,,elpida_27_10_23_ao_hugin_dots,001,2023-10-27_14h53.40.777,Oddball_task,2022.2.5,59.99998800165726,
standard,soundFiles/1000Hz_-3dBFS_3s_44.1kHz.wav',None,1000,43,3,175,1,,,,,608.7662192999996,609.7677680999914,609.7677221599981,611.4670477000036,611.7671405000001,2.7022387198051883,None,1,,,elpida_27_10_23_ao_hugin_dots,001,2023-10-27_14h53.40.777,Oddball_task,2022.2.5,59.99998800165726,
standard,soundFiles/1000Hz_-3dBFS_3s_44.1kHz.wav',None,1000,44,0,176,1,,,,,611.7671405000001,612.766238199998,612.7670798599968,615.0337846999901,614.7666226000001,3.2510429853647222,None,1,,,elpida_27_10_23_ao_hugin_dots,001,2023-10-27_14h53.40.777,Oddball_task,2022.2.5,59.99998800165726,
standard,soundFiles/1000Hz_-3dBFS_3s_44.1kHz.wav',None,1000,44,1,177,0,,,,,615.0337846999901,616.0340427999909,616.0352692599947,617.367957399998,618.0327049999905,2.3320560886110493,None,1,,,elpida_27_10_23_ao_hugin_dots,001,2023-10-27_14h53.40.777,Oddball_task,2022.2.5,59.99998800165726,
target,soundFiles/1200Hz_-3dBFS_3s_44.1kHz.wav',t,2000,44,2,178,3,,,,,618.0327049999905,619.0334563999932,619.0338406600015,620.0669319000008,621.0328480000026,2.0215683562489346,t,1,0.8715121999994153,,elpida_27_10_23_ao_hugin_dots,001,2023-10-27_14h53.40.777,Oddball_task,2022.2.5,59.99998800165726,
standard,soundFiles/1000Hz_-3dBFS_3s_44.1kHz.wav',None,1000,44,3,179,2,,,,,621.0328480000026,622.0326405999949,622.0337365599946,624.3503354999993,624.0323719000007,3.305379591593783,None,1,,,elpida_27_10_23_ao_hugin_dots,001,2023-10-27_14h53.40.777,Oddball_task,2022.2.5,59.99998800165726,
standard,soundFiles/1000Hz_-3dBFS_3s_44.1kHz.wav',None,1000,45,0,180,0,,,,,624.3503354999993,625.3343028999952,625.3354534599887,627.9493924999988,627.3501091999933,3.5976317962092885,None,1,,626.3328704000014,elpida_27_10_23_ao_hugin_dots,001,2023-10-27_14h53.40.777,Oddball_task,2022.2.5,59.99998800165726,
standard,soundFiles/1000Hz_-3dBFS_3s_44.1kHz.wav',None,1000,45,1,181,2,,,,,627.9493924999988,628.9346401999937,628.9350588600021,631.2347759999975,630.9332186999964,3.2822368809931595,None,1,,,elpida_27_10_23_ao_hugin_dots,001,2023-10-27_14h53.40.777,Oddball_task,2022.2.5,59.99998800165726,
target,soundFiles/1200Hz_-3dBFS_3s_44.1kHz.wav',t,2000,45,2,182,3,,,,,631.2347759999975,632.23294419999,632.2343081599931,634.3660067000019,634.2327362999931,3.132214779778715,t,1,0.5621277000027476,,elpida_27_10_23_ao_hugin_dots,001,2023-10-27_14h53.40.777,Oddball_task,2022.2.5,59.99998800165726,
standard,soundFiles/1000Hz_-3dBFS_3s_44.1kHz.wav',None,1000,45,3,183,1,,,,,634.3660067000019,635.3657928999892,635.3668196600004,637.6666346999991,637.3666302999918,3.301685696639918,None,1,,,elpida_27_10_23_ao_hugin_dots,001,2023-10-27_14h53.40.777,Oddball_task,2022.2.5,59.99998800165726,
standard,soundFiles/1000Hz_-3dBFS_3s_44.1kHz.wav',None,1000,46,0,184,0,,,,,637.6666346999991,638.6653289999958,638.6661701599908,641.5007954999892,640.6876800000027,3.826330786589023,None,1,,,elpida_27_10_23_ao_hugin_dots,001,2023-10-27_14h53.40.777,Oddball_task,2022.2.5,59.99998800165726,
target,soundFiles/1200Hz_-3dBFS_3s_44.1kHz.wav',t,2000,46,1,185,3,,,,,641.5007954999892,642.4998201999988,642.4984897599891,644.3329006999993,644.5001539999939,2.8186100833155825,t,1,0.6334869999991497,643.5006047999923,elpida_27_10_23_ao_hugin_dots,001,2023-10-27_14h53.40.777,Oddball_task,2022.2.5,59.99998800165726,
standard,soundFiles/1000Hz_-3dBFS_3s_44.1kHz.wav',None,1000,46,2,186,2,,,,,644.5001539999939,645.4991837999987,645.4994555599944,648.2475969999941,647.498443199991,3.7495610325146864,None,1,,,elpida_27_10_23_ao_hugin_dots,001,2023-10-27_14h53.40.777,Oddball_task,2022.2.5,59.99998800165726,
standard,soundFiles/1000Hz_-3dBFS_3s_44.1kHz.wav',None,1000,46,3,187,1,,,,,648.2475969999941,649.2483387999964,649.2496079599907,650.9155643999984,651.2491537000024,2.6584381196473688,None,1,,,elpida_27_10_23_ao_hugin_dots,001,2023-10-27_14h53.40.777,Oddball_task,2022.2.5,59.99998800165726,
standard,soundFiles/1000Hz_-3dBFS_3s_44.1kHz.wav',None,1000,47,0,188,0,,,,,651.2491537000024,652.2478969999938,652.2491665599912,654.3319884999946,654.2477445999975,3.0773489074245393,None,1,,,elpida_27_10_23_ao_hugin_dots,001,2023-10-27_14h53.40.777,Oddball_task,2022.2.5,59.99998800165726,
target,soundFiles/1200Hz_-3dBFS_3s_44.1kHz.wav',t,2000,47,1,189,3,,,,,654.3319884999946,655.3146198000031,655.3153156599976,657.2333079999953,657.3155245999951,2.8876071359451583,t,1,0.6192792999936501,,elpida_27_10_23_ao_hugin_dots,001,2023-10-27_14h53.40.777,Oddball_task,2022.2.5,59.99998800165726,
standard,soundFiles/1000Hz_-3dBFS_3s_44.1kHz.wav',None,1000,47,2,190,1,,,,,657.3155245999951,658.3136225999915,658.3139904599914,660.2316955999995,660.3147406999924,2.9157506533185957,None,1,,,elpida_27_10_23_ao_hugin_dots,001,2023-10-27_14h53.40.777,Oddball_task,2022.2.5,59.99998800165726,
standard,soundFiles/1000Hz_-3dBFS_3s_44.1kHz.wav',None,1000,47,3,191,2,,,,,660.3147406999924,661.3141126999981,661.3160993599988,663.6819949999917,663.3152731000009,3.353594890147753,None,1,,,elpida_27_10_23_ao_hugin_dots,001,2023-10-27_14h53.40.777,Oddball_task,2022.2.5,59.99998800165726,
standard,soundFiles/1000Hz_-3dBFS_3s_44.1kHz.wav',None,1000,48,0,192,0,,,,,663.6819949999917,664.6810888999898,664.6814553599936,666.0473628999898,666.680652199997,2.3623791788381134,None,1,,,elpida_27_10_23_ao_hugin_dots,001,2023-10-27_14h53.40.777,Oddball_task,2022.2.5,59.99998800165726,
standard,soundFiles/1000Hz_-3dBFS_3s_44.1kHz.wav',None,1000,48,1,193,2,,,,,666.680652199997,667.6801577000006,667.6807540599941,668.7314460999914,669.6798178000026,2.041743791659372,None,1,,,elpida_27_10_23_ao_hugin_dots,001,2023-10-27_14h53.40.777,Oddball_task,2022.2.5,59.99998800165726,
target,soundFiles/1200Hz_-3dBFS_3s_44.1kHz.wav',t,2000,48,2,194,3,,,,,669.6798178000026,670.6804620999901,670.6813003599921,673.5136796000006,672.6824947999994,3.8274814892204905,t,1,0.7289965999952983,,elpida_27_10_23_ao_hugin_dots,001,2023-10-27_14h53.40.777,Oddball_task,2022.2.5,59.99998800165726,
standard,soundFiles/1000Hz_-3dBFS_3s_44.1kHz.wav',None,1000,48,3,195,1,,,,,673.5136796000006,674.5131036999956,674.5143454599995,675.8800829999964,676.5137060999987,2.3523877111092313,None,1,,,elpida_27_10_23_ao_hugin_dots,001,2023-10-27_14h53.40.777,Oddball_task,2022.2.5,59.99998800165726,
standard,soundFiles/1000Hz_-3dBFS_3s_44.1kHz.wav',None,1000,49,0,196,1,,,,,676.5137060999987,677.5132441000023,677.5146146599975,679.0135402000014,679.5139693999954,2.496365352566411,None,1,,,elpida_27_10_23_ao_hugin_dots,001,2023-10-27_14h53.40.777,Oddball_task,2022.2.5,59.99998800165726,
standard,soundFiles/1000Hz_-3dBFS_3s_44.1kHz.wav',None,1000,49,1,197,0,,,,,679.5139693999954,680.513023099993,680.5139034599954,682.2973328999942,682.512187699991,2.7819002247418068,None,1,,,elpida_27_10_23_ao_hugin_dots,001,2023-10-27_14h53.40.777,Oddball_task,2022.2.5,59.99998800165726,
standard,soundFiles/1000Hz_-3dBFS_3s_44.1kHz.wav',None,1000,49,2,198,2,,,,,682.512187699991,683.5121794000006,683.5128808599941,684.9469930999912,685.5137894999934,2.433333582108925,None,1,,,elpida_27_10_23_ao_hugin_dots,001,2023-10-27_14h53.40.777,Oddball_task,2022.2.5,59.99998800165726,
target,soundFiles/1200Hz_-3dBFS_3s_44.1kHz.wav',t,2000,49,3,199,3,,,,,685.5137894999934,686.5126931999985,686.5137126599977,687.6473239999905,688.513266199996,2.124024790170343,t,1,0.7786186000012094,,elpida_27_10_23_ao_hugin_dots,001,2023-10-27_14h53.40.777,Oddball_task,2022.2.5,59.99998800165726,
standard,soundFiles/1000Hz_-3dBFS_3s_44.1kHz.wav',None,1000,50,0,200,2,,,,,688.513266199996,689.5126667000004,689.5127355599936,692.4797082000005,691.5138554000005,3.958533195736219,None,1,,,elpida_27_10_23_ao_hugin_dots,001,2023-10-27_14h53.40.777,Oddball_task,2022.2.5,59.99998800165726,
target,soundFiles/1200Hz_-3dBFS_3s_44.1kHz.wav',t,2000,50,1,201,3,,,,,692.4797082000005,693.4793271999952,693.4803767599908,696.1637582999974,695.4792924999929,3.670731828995839,t,1,0.9043046000006143,,elpida_27_10_23_ao_hugin_dots,001,2023-10-27_14h53.40.777,Oddball_task,2022.2.5,59.99998800165726,
standard,soundFiles/1000Hz_-3dBFS_3s_44.1kHz.wav',None,1000,50,2,202,0,,,,,696.1637582999974,697.163353099997,697.1627567599892,698.7467246000015,699.1633231000014,2.5849111047177917,None,1,,,elpida_27_10_23_ao_hugin_dots,001,2023-10-27_14h53.40.777,Oddball_task,2022.2.5,59.99998800165726,
standard,soundFiles/1000Hz_-3dBFS_3s_44.1kHz.wav',None,1000,50,3,203,1,,,,,699.1633231000014,700.1626908000035,700.153880159992,702.2787316000031,702.1633790999913,3.1008354931115725,None,1,,,elpida_27_10_23_ao_hugin_dots,001,2023-10-27_14h53.40.777,Oddball_task,2022.2.5,59.99998800165726,
standard,soundFiles/1000Hz_-3dBFS_3s_44.1kHz.wav',None,1000,51,0,204,0,,,,,702.2787316000031,703.2621492999897,703.263120660001,704.5134927999898,705.2619073999958,2.231004323863792,None,1,,,elpida_27_10_23_ao_hugin_dots,001,2023-10-27_14h53.40.777,Oddball_task,2022.2.5,59.99998800165726,
standard,soundFiles/1000Hz_-3dBFS_3s_44.1kHz.wav',None,1000,51,1,205,1,,,,,705.2619073999958,706.2455648000032,706.2478808599947,709.1608724999969,708.2470774999965,3.8843709266861635,None,1,,,elpida_27_10_23_ao_hugin_dots,001,2023-10-27_14h53.40.777,Oddball_task,2022.2.5,59.99998800165726,
standard,soundFiles/1000Hz_-3dBFS_3s_44.1kHz.wav',None,1000,51,2,206,2,,,,,709.1608724999969,710.161844000002,710.1631320599947,712.3948374999891,712.161850199991,3.2294889410438286,None,1,,,elpida_27_10_23_ao_hugin_dots,001,2023-10-27_14h53.40.777,Oddball_task,2022.2.5,59.99998800165726,
target,soundFiles/1200Hz_-3dBFS_3s_44.1kHz.wav',t,2000,51,3,207,3,,,,,712.3948374999891,713.3947921999934,713.3965516599958,716.2275112999923,715.3938982999971,3.820194055493644,t,1,0.794392700001481,,elpida_27_10_23_ao_hugin_dots,001,2023-10-27_14h53.40.777,Oddball_task,2022.2.5,59.99998800165726,
standard,soundFiles/1000Hz_-3dBFS_3s_44.1kHz.wav',None,1000,52,0,208,1,,,,,716.2275112999923,717.2274528999988,717.2292609599929,718.4944774000032,719.2277384999907,2.254992019925343,None,1,,,elpida_27_10_23_ao_hugin_dots,001,2023-10-27_14h53.40.777,Oddball_task,2022.2.5,59.99998800165726,
target,soundFiles/1200Hz_-3dBFS_3s_44.1kHz.wav',t,2000,52,1,209,3,,,,,719.2277384999907,720.2291990999947,720.227355759994,722.1445072999923,722.2443628999899,2.9175022853635393,t,1,0.8367528000089806,,elpida_27_10_23_ao_hugin_dots,001,2023-10-27_14h53.40.777,Oddball_task,2022.2.5,59.99998800165726,
standard,soundFiles/1000Hz_-3dBFS_3s_44.1kHz.wav',None,1000,52,2,210,0,,,,,722.2443628999899,723.2454750999896,723.2466562599977,724.3945725999947,725.2610591999983,2.143851329173004,None,1,,,elpida_27_10_23_ao_hugin_dots,001,2023-10-27_14h53.40.777,Oddball_task,2022.2.5,59.99998800165726,
standard,soundFiles/1000Hz_-3dBFS_3s_44.1kHz.wav',None,1000,52,3,211,2,,,,,725.2610591999983,726.2843524999917,726.26391936,727.6960333000025,728.2940495999937,2.4251875513159127,None,1,,,elpida_27_10_23_ao_hugin_dots,001,2023-10-27_14h53.40.777,Oddball_task,2022.2.5,59.99998800165726,
standard,soundFiles/1000Hz_-3dBFS_3s_44.1kHz.wav',None,1000,53,0,212,2,,,,,728.2940495999937,729.294186500003,729.2953742599886,730.7975599999918,731.295208800002,2.4763310297389074,None,1,,,elpida_27_10_23_ao_hugin_dots,001,2023-10-27_14h53.40.777,Oddball_task,2022.2.5,59.99998800165726,
standard,soundFiles/1000Hz_-3dBFS_3s_44.1kHz.wav',None,1000,53,1,213,0,,,,,731.295208800002,732.2930962999963,732.2956834600002,734.7949663000036,734.2944160999905,3.49387550065597,None,1,,,elpida_27_10_23_ao_hugin_dots,001,2023-10-27_14h53.40.777,Oddball_task,2022.2.5,59.99998800165726,
target,soundFiles/1200Hz_-3dBFS_3s_44.1kHz.wav',t,2000,53,2,214,3,,,,,734.7949663000036,735.7928380999947,735.7933742599955,738.7108765000012,737.7937954999943,3.908372241226162,t,1,0.8164027000020724,,elpida_27_10_23_ao_hugin_dots,001,2023-10-27_14h53.40.777,Oddball_task,2022.2.5,59.99998800165726,
standard,soundFiles/1000Hz_-3dBFS_3s_44.1kHz.wav',None,1000,53,3,215,1,,,,,738.7108765000012,739.7120272000029,739.710089659998,741.3454016999895,741.7258002000017,2.618520091696785,None,1,,,elpida_27_10_23_ao_hugin_dots,001,2023-10-27_14h53.40.777,Oddball_task,2022.2.5,59.99998800165726,
target,soundFiles/1200Hz_-3dBFS_3s_44.1kHz.wav',t,2000,54,0,216,3,,,,,741.7258002000017,742.7257409000013,742.7263641599959,745.060441499998,744.7262451999995,3.3246275669145064,t,1,0.9436994000134291,,elpida_27_10_23_ao_hugin_dots,001,2023-10-27_14h53.40.777,Oddball_task,2022.2.5,59.99998800165726,
standard,soundFiles/1000Hz_-3dBFS_3s_44.1kHz.wav',None,1000,54,1,217,1,,,,,745.060441499998,746.060816600002,746.0610734600007,748.2429590999964,748.0601253999921,3.173002536452275,None,1,,,elpida_27_10_23_ao_hugin_dots,001,2023-10-27_14h53.40.777,Oddball_task,2022.2.5,59.99998800165726,
standard,soundFiles/1000Hz_-3dBFS_3s_44.1kHz.wav',None,1000,54,2,218,2,,,,,748.2429590999964,749.2263468000019,749.2295814599886,750.8772160999943,751.2264578000031,2.6273148715668677,None,1,,,elpida_27_10_23_ao_hugin_dots,001,2023-10-27_14h53.40.777,Oddball_task,2022.2.5,59.99998800165726,
standard,soundFiles/1000Hz_-3dBFS_3s_44.1kHz.wav',None,1000,54,3,219,0,,,,,751.2264578000031,752.2265503999952,752.2272240599953,753.5266655000014,754.226416999998,2.2869288616599133,None,1,,,elpida_27_10_23_ao_hugin_dots,001,2023-10-27_14h53.40.777,Oddball_task,2022.2.5,59.99998800165726,
standard,soundFiles/1000Hz_-3dBFS_3s_44.1kHz.wav',None,1000,55,0,220,0,,,,,754.226416999998,755.2262860999908,755.227166559994,757.0782394999987,757.2274085999961,2.838487934778006,None,1,,,elpida_27_10_23_ao_hugin_dots,001,2023-10-27_14h53.40.777,Oddball_task,2022.2.5,59.99998800165726,
standard,soundFiles/1000Hz_-3dBFS_3s_44.1kHz.wav',None,1000,55,1,221,1,,,,,757.2274085999961,758.2254688999965,758.2262859599971,760.7412767999922,760.2252081999904,3.4893842351586133,None,1,,,elpida_27_10_23_ao_hugin_dots,001,2023-10-27_14h53.40.777,Oddball_task,2022.2.5,59.99998800165726,
standard,soundFiles/1000Hz_-3dBFS_3s_44.1kHz.wav',None,1000,55,2,222,2,,,,,760.7412767999922,761.7263464999996,761.7274520599997,764.0761834000004,763.725832600001,3.3307510971902343,None,1,,,elpida_27_10_23_ao_hugin_dots,001,2023-10-27_14h53.40.777,Oddball_task,2022.2.5,59.99998800165726,
target,soundFiles/1200Hz_-3dBFS_3s_44.1kHz.wav',t,2000,55,3,223,3,,,,,764.0761834000004,765.0607502999919,765.0614564599921,766.9248308999959,767.0767030999996,2.845973225533853,t,1,0.7903447999997297,,elpida_27_10_23_ao_hugin_dots,001,2023-10-27_14h53.40.777,Oddball_task,2022.2.5,59.99998800165726,
standard,soundFiles/1000Hz_-3dBFS_3s_44.1kHz.wav',None,1000,56,0,224,1,,,,,767.0767030999996,768.059711599999,768.0610141600002,770.3249110999895,770.0749021999945,3.2476874300836394,None,1,,,elpida_27_10_23_ao_hugin_dots,001,2023-10-27_14h53.40.777,Oddball_task,2022.2.5,59.99998800165726,
standard,soundFiles/1000Hz_-3dBFS_3s_44.1kHz.wav',None,1000,56,1,225,2,,,,,770.3249110999895,771.3246261000022,771.3260778599899,773.9464057000005,773.3662095999898,3.559190980911201,None,1,,,elpida_27_10_23_ao_hugin_dots,001,2023-10-27_14h53.40.777,Oddball_task,2022.2.5,59.99998800165726,
standard,soundFiles/1000Hz_-3dBFS_3s_44.1kHz.wav',None,1000,56,2,226,0,,,,,773.9464057000005,774.9087814999948,774.9082954599974,777.3456663999968,776.908571699998,3.3831994665523863,None,1,,,elpida_27_10_23_ao_hugin_dots,001,2023-10-27_14h53.40.777,Oddball_task,2022.2.5,59.99998800165726,
target,soundFiles/1200Hz_-3dBFS_3s_44.1kHz.wav',t,2000,56,3,227,3,,,,,777.3456663999968,778.3442639999994,778.3426750600004,779.824338099992,780.3578798999952,2.4659426657706565,t,1,0.9018920000089565,,elpida_27_10_23_ao_hugin_dots,001,2023-10-27_14h53.40.777,Oddball_task,2022.2.5,59.99998800165726,
standard,soundFiles/1000Hz_-3dBFS_3s_44.1kHz.wav',None,1000,57,0,228,2,,,,,780.3578798999952,781.357760999992,781.3580827599901,783.540527899997,783.3604245000024,3.177491882140168,None,1,,,elpida_27_10_23_ao_hugin_dots,001,2023-10-27_14h53.40.777,Oddball_task,2022.2.5,59.99998800165726,
standard,soundFiles/1000Hz_-3dBFS_3s_44.1kHz.wav',None,1000,57,1,229,0,,,,,783.540527899997,784.5436539999937,784.5432771599983,786.8080132000032,786.5571354999993,3.266442573300573,None,1,,,elpida_27_10_23_ao_hugin_dots,001,2023-10-27_14h53.40.777,Oddball_task,2022.2.5,59.99998800165726,
target,soundFiles/1200Hz_-3dBFS_3s_44.1kHz.wav',t,2000,57,2,230,3,,,,,786.8080132000032,787.8079310999892,787.8088547600012,789.9410943999974,789.8087319999904,3.1225558505106243,t,1,0.8144348999921931,,elpida_27_10_23_ao_hugin_dots,001,2023-10-27_14h53.40.777,Oddball_task,2022.2.5,59.99998800165726,
standard,soundFiles/1000Hz_-3dBFS_3s_44.1kHz.wav',None,1000,57,3,231,1,,,,,789.9410943999974,790.9410242000013,790.9433926599988,793.591817499997,792.9418044999911,3.648335622441615,None,1,,,elpida_27_10_23_ao_hugin_dots,001,2023-10-27_14h53.40.777,Oddball_task,2022.2.5,59.99998800165726,
standard,soundFiles/1000Hz_-3dBFS_3s_44.1kHz.wav',None,1000,58,0,232,0,,,,,793.591817499997,794.5739841000031,794.577238159992,797.3406593999971,796.5748423999903,3.7361022289497257,None,1,,,elpida_27_10_23_ao_hugin_dots,001,2023-10-27_14h53.40.777,Oddball_task,2022.2.5,59.99998800165726,
standard,soundFiles/1000Hz_-3dBFS_3s_44.1kHz.wav',None,1000,58,1,233,2,,,,,797.3406593999971,798.3402171999915,798.3416406599965,799.926663899998,800.3399014000024,2.571808615486855,None,1,,,elpida_27_10_23_ao_hugin_dots,001,2023-10-27_14h53.40.777,Oddball_task,2022.2.5,59.99998800165726,
standard,soundFiles/1000Hz_-3dBFS_3s_44.1kHz.wav',None,1000,58,2,234,1,,,,,800.3399014000024,801.3399669999926,801.3417080600004,804.0091939999984,803.3403450999904,3.623152151755275,None,1,,,elpida_27_10_23_ao_hugin_dots,001,2023-10-27_14h53.40.777,Oddball_task,2022.2.5,59.99998800165726,
target,soundFiles/1200Hz_-3dBFS_3s_44.1kHz.wav',t,2000,58,3,235,3,,,,,804.0091939999984,804.9902730000031,804.991282860002,807.7894271999976,806.9898333000019,3.775159294884923,t,1,0.5887194000097224,,elpida_27_10_23_ao_hugin_dots,001,2023-10-27_14h53.40.777,Oddball_task,2022.2.5,59.99998800165726,
target,soundFiles/1200Hz_-3dBFS_3s_44.1kHz.wav',t,2000,59,0,236,3,,,,,807.7894271999976,808.7890863999928,808.7900493599984,811.690365699993,810.7899870999972,3.8864575391129716,t,1,0.8852506999974139,,elpida_27_10_23_ao_hugin_dots,001,2023-10-27_14h53.40.777,Oddball_task,2022.2.5,59.99998800165726,
standard,soundFiles/1000Hz_-3dBFS_3s_44.1kHz.wav',None,1000,59,1,237,2,,,,,811.690365699993,812.690007199999,812.690549260001,813.7424243999994,814.6896111999959,2.042500668568604,None,1,,,elpida_27_10_23_ao_hugin_dots,001,2023-10-27_14h53.40.777,Oddball_task,2022.2.5,59.99998800165726,
standard,soundFiles/1000Hz_-3dBFS_3s_44.1kHz.wav',None,1000,59,2,238,1,,,,,814.6896111999959,815.6897230000031,815.6906471599898,818.2561548999947,817.6896254000021,3.5662213487180265,None,1,,,elpida_27_10_23_ao_hugin_dots,001,2023-10-27_14h53.40.777,Oddball_task,2022.2.5,59.99998800165726,
standard,soundFiles/1000Hz_-3dBFS_3s_44.1kHz.wav',None,1000,59,3,239,0,,,,,818.2561548999947,819.254869299999,819.2558570599897,820.6401859999896,821.2934984000021,2.384141475420935,None,1,,,elpida_27_10_23_ao_hugin_dots,001,2023-10-27_14h53.40.777,Oddball_task,2022.2.5,59.99998800165726,
standard,soundFiles/1000Hz_-3dBFS_3s_44.1kHz.wav',None,1000,60,0,240,0,,,,,821.2934984000021,822.2563368999981,822.2586299599891,824.9224418999947,824.2569479999947,3.6177074902060666,None,1,,,elpida_27_10_23_ao_hugin_dots,001,2023-10-27_14h53.40.777,Oddball_task,2022.2.5,59.99998800165726,
standard,soundFiles/1000Hz_-3dBFS_3s_44.1kHz.wav',None,1000,60,1,241,2,,,,,824.9224418999947,825.9217937999929,825.923029059991,827.7567255000031,827.9233857999934,2.8288298426821497,None,1,,,elpida_27_10_23_ao_hugin_dots,001,2023-10-27_14h53.40.777,Oddball_task,2022.2.5,59.99998800165726,
standard,soundFiles/1000Hz_-3dBFS_3s_44.1kHz.wav',None,1000,60,2,242,1,,,,,827.9233857999934,828.9213471999974,828.9229522600028,830.3213513999945,830.9225758999964,2.3872255707609775,None,1,,,elpida_27_10_23_ao_hugin_dots,001,2023-10-27_14h53.40.777,Oddball_task,2022.2.5,59.99998800165726,
target,soundFiles/1200Hz_-3dBFS_3s_44.1kHz.wav',t,2000,60,3,243,3,,,,,830.9225758999964,831.9221467000025,831.9228884599972,834.2216645000008,833.923080099994,3.290389884354413,t,1,0.7943748999969102,,elpida_27_10_23_ao_hugin_dots,001,2023-10-27_14h53.40.777,Oddball_task,2022.2.5,59.99998800165726,
target,soundFiles/1200Hz_-3dBFS_3s_44.1kHz.wav',t,2000,61,0,244,3,,,,,834.2216645000008,835.221438099994,835.2235164599945,836.2419746999949,837.2223711999977,2.0169026317456566,t,1,0.8881898000108777,,elpida_27_10_23_ao_hugin_dots,001,2023-10-27_14h53.40.777,Oddball_task,2022.2.5,59.99998800165726,
standard,soundFiles/1000Hz_-3dBFS_3s_44.1kHz.wav',None,1000,61,1,245,2,,,,,837.2223711999977,838.2222179999953,838.2222248599967,840.1569881999894,840.2230809999892,2.936654015701287,None,1,,,elpida_27_10_23_ao_hugin_dots,001,2023-10-27_14h53.40.777,Oddball_task,2022.2.5,59.99998800165726,
standard,soundFiles/1000Hz_-3dBFS_3s_44.1kHz.wav',None,1000,61,2,246,1,,,,,840.2230809999892,841.2220186999912,841.2223698599948,844.0375207999896,843.2223776000028,3.8001852862815855,None,1,,,elpida_27_10_23_ao_hugin_dots,001,2023-10-27_14h53.40.777,Oddball_task,2022.2.5,59.99998800165726,
standard,soundFiles/1000Hz_-3dBFS_3s_44.1kHz.wav',None,1000,61,3,247,0,,,,,844.0375207999896,845.0215812999959,845.0222603599934,848.0205306999997,847.0223847000016,3.9717170504302826,None,1,,,elpida_27_10_23_ao_hugin_dots,001,2023-10-27_14h53.40.777,Oddball_task,2022.2.5,59.99998800165726,
standard,soundFiles/1000Hz_-3dBFS_3s_44.1kHz.wav',None,1000,62,0,248,1,,,,,848.0205306999997,849.0214120000019,849.0215830600021,851.0872875999921,851.0206441999908,3.067044285265742,None,1,,,elpida_27_10_23_ao_hugin_dots,001,2023-10-27_14h53.40.777,Oddball_task,2022.2.5,59.99998800165726,
target,soundFiles/1200Hz_-3dBFS_3s_44.1kHz.wav',t,2000,62,1,249,3,,,,,851.0872875999921,852.0867296999932,852.0872931599981,853.4863638999959,854.0874785999913,2.400032043377176,t,1,0.8572894000099041,853.0874866999948,elpida_27_10_23_ao_hugin_dots,001,2023-10-27_14h53.40.777,Oddball_task,2022.2.5,59.99998800165726,
standard,soundFiles/1000Hz_-3dBFS_3s_44.1kHz.wav',None,1000,62,2,250,2,,,,,854.0874785999913,855.0871681999997,855.0882028599983,856.20441939999,857.0873782999988,2.1086095553963258,None,1,,,elpida_27_10_23_ao_hugin_dots,001,2023-10-27_14h53.40.777,Oddball_task,2022.2.5,59.99998800165726,
standard,soundFiles/1000Hz_-3dBFS_3s_44.1kHz.wav',None,1000,62,3,251,0,,,,,857.0873782999988,858.0862996999931,858.0872937600027,861.0205298999936,860.088557199997,3.932198171753754,None,1,,,elpida_27_10_23_ao_hugin_dots,001,2023-10-27_14h53.40.777,Oddball_task,2022.2.5,59.99998800165726,
standard,soundFiles/1000Hz_-3dBFS_3s_44.1kHz.wav',None,1000,63,0,252,2,,,,,861.0205298999936,862.020254499992,862.0213682599963,863.9045581999962,864.0197982999962,2.8823281527880047,None,1,,,elpida_27_10_23_ao_hugin_dots,001,2023-10-27_14h53.40.777,Oddball_task,2022.2.5,59.99998800165726,
standard,soundFiles/1000Hz_-3dBFS_3s_44.1kHz.wav',None,1000,63,1,253,0,,,,,864.0197982999962,865.0212436000002,865.0223425599936,867.6544157000026,867.0202013999951,3.6309513805670246,None,1,,866.0191819999891,elpida_27_10_23_ao_hugin_dots,001,2023-10-27_14h53.40.777,Oddball_task,2022.2.5,59.99998800165726,
target,soundFiles/1200Hz_-3dBFS_3s_44.1kHz.wav',t,2000,63,2,254,3,,,,,867.6544157000026,868.6526013999974,868.6529817599906,871.0868887999968,870.6536954999901,3.432086071835962,t,1,0.7657497000036528,,elpida_27_10_23_ao_hugin_dots,001,2023-10-27_14h53.40.777,Oddball_task,2022.2.5,59.99998800165726,
standard,soundFiles/1000Hz_-3dBFS_3s_44.1kHz.wav',None,1000,63,3,255,1,,,,,871.0868887999968,872.0865943999961,872.0873067599998,874.9868071999954,874.087059700003,3.8949148274776433,None,1,,,elpida_27_10_23_ao_hugin_dots,001,2023-10-27_14h53.40.777,Oddball_task,2022.2.5,59.99998800165726,
standard,soundFiles/1000Hz_-3dBFS_3s_44.1kHz.wav',None,1000,64,0,256,1,,,,,874.9868071999954,875.9863201999979,875.9881446600004,877.4375929999951,877.9866502999939,2.4458081302932433,None,1,,,elpida_27_10_23_ao_hugin_dots,001,2023-10-27_14h53.40.777,Oddball_task,2022.2.5,59.99998800165726,
standard,soundFiles/1000Hz_-3dBFS_3s_44.1kHz.wav',None,1000,64,1,257,0,,,,,877.9866502999939,878.9708363999962,878.9731797599918,881.0535199000005,880.9686950000032,3.059742469279838,None,1,,,elpida_27_10_23_ao_hugin_dots,001,2023-10-27_14h53.40.777,Oddball_task,2022.2.5,59.99998800165726,
target,soundFiles/1200Hz_-3dBFS_3s_44.1kHz.wav',t,2000,64,2,258,3,,,,,881.0535199000005,882.0533551999979,882.0522463600021,883.4575356999994,884.0525511000014,2.381041772637402,t,1,0.7388080000091577,,elpida_27_10_23_ao_hugin_dots,001,2023-10-27_14h53.40.777,Oddball_task,2022.2.5,59.99998800165726,
standard,soundFiles/1000Hz_-3dBFS_3s_44.1kHz.wav',None,1000,64,3,259,2,,,,,884.0525511000014,885.037568899992,885.0379308599906,886.9047394999943,887.0369746999932,2.8489399249212157,None,1,,,elpida_27_10_23_ao_hugin_dots,001,2023-10-27_14h53.40.777,Oddball_task,2022.2.5,59.99998800165726,
standard,soundFiles/1000Hz_-3dBFS_3s_44.1kHz.wav',None,1000,65,0,260,2,,,,,887.0369746999932,888.036912800002,888.0376707599892,890.5019415999996,890.0352137000009,3.4610765366443026,None,1,,,elpida_27_10_23_ao_hugin_dots,001,2023-10-27_14h53.40.777,Oddball_task,2022.2.5,59.99998800165726,
target,soundFiles/1200Hz_-3dBFS_3s_44.1kHz.wav',t,2000,65,1,261,3,,,,,890.5019415999996,891.5026620999997,891.502302359989,894.4190213999973,893.5014766999957,3.9023148301560715,t,1,0.7859032000123989,,elpida_27_10_23_ao_hugin_dots,001,2023-10-27_14h53.40.777,Oddball_task,2022.2.5,59.99998800165726,
standard,soundFiles/1000Hz_-3dBFS_3s_44.1kHz.wav',None,1000,65,2,262,1,,,,,894.4190213999973,895.402059400003,895.4052265599996,896.735697600001,897.4035868999927,2.30743608348841,None,1,,896.4040061999985,elpida_27_10_23_ao_hugin_dots,001,2023-10-27_14h53.40.777,Oddball_task,2022.2.5,59.99998800165726,
standard,soundFiles/1000Hz_-3dBFS_3s_44.1kHz.wav',None,1000,65,3,263,0,,,,,897.4035868999927,898.4016125999915,898.4029683599904,899.7368285999983,900.4027242000011,2.3262981627890587,None,1,,,elpida_27_10_23_ao_hugin_dots,001,2023-10-27_14h53.40.777,Oddball_task,2022.2.5,59.99998800165726,
standard,soundFiles/1000Hz_-3dBFS_3s_44.1kHz.wav',None,1000,66,0,264,0,,,,,900.4027242000011,901.4019210999977,901.4035759599894,902.785392699996,903.4027378000028,2.371794460201193,None,1,,,elpida_27_10_23_ao_hugin_dots,001,2023-10-27_14h53.40.777,Oddball_task,2022.2.5,59.99998800165726,
target,soundFiles/1200Hz_-3dBFS_3s_44.1kHz.wav',t,2000,66,1,265,3,,,,,903.4027378000028,904.4019378999947,904.4021786600017,906.2846269000001,906.4018367999961,2.8755565462577426,t,1,0.6971735999977682,,elpida_27_10_23_ao_hugin_dots,001,2023-10-27_14h53.40.777,Oddball_task,2022.2.5,59.99998800165726,
standard,soundFiles/1000Hz_-3dBFS_3s_44.1kHz.wav',None,1000,66,2,266,2,,,,,906.4018367999961,907.4018605000019,907.4024103599907,910.1865693,909.4011070999986,3.773507786301918,None,1,,,elpida_27_10_23_ao_hugin_dots,001,2023-10-27_14h53.40.777,Oddball_task,2022.2.5,59.99998800165726,
standard,soundFiles/1000Hz_-3dBFS_3s_44.1kHz.wav',None,1000,66,3,267,1,,,,,910.1865693,911.183976100001,911.1834358599983,913.8687322999904,913.1853149999952,3.683870327932135,None,1,,,elpida_27_10_23_ao_hugin_dots,001,2023-10-27_14h53.40.777,Oddball_task,2022.2.5,59.99998800165726,
target,soundFiles/1200Hz_-3dBFS_3s_44.1kHz.wav',t,2000,67,0,268,3,,,,,913.8687322999904,914.8673876999965,914.8681003600025,916.0852633999893,916.867322799997,2.2052528292935065,t,1,0.8447672000038438,915.8676568999945,elpida_27_10_23_ao_hugin_dots,001,2023-10-27_14h53.40.777,Oddball_task,2022.2.5,59.99998800165726,
standard,soundFiles/1000Hz_-3dBFS_3s_44.1kHz.wav',None,1000,67,1,269,2,,,,,916.867322799997,917.8674344000028,917.8685187600015,919.0331758999964,919.8695861000015,2.1539741731143844,None,1,,,elpida_27_10_23_ao_hugin_dots,001,2023-10-27_14h53.40.777,Oddball_task,2022.2.5,59.99998800165726,
standard,soundFiles/1000Hz_-3dBFS_3s_44.1kHz.wav',None,1000,67,2,270,0,,,,,919.8695861000015,920.8664603999932,920.8690128599949,922.500795400003,922.8663853999897,2.6195576443979194,None,1,,,elpida_27_10_23_ao_hugin_dots,001,2023-10-27_14h53.40.777,Oddball_task,2022.2.5,59.99998800165726,
standard,soundFiles/1000Hz_-3dBFS_3s_44.1kHz.wav',None,1000,67,3,271,1,,,,,922.8663853999897,923.8672917999938,923.8682871599988,926.3019759000017,925.8661442000011,3.4197771236902526,None,1,,,elpida_27_10_23_ao_hugin_dots,001,2023-10-27_14h53.40.777,Oddball_task,2022.2.5,59.99998800165726,
target,soundFiles/1200Hz_-3dBFS_3s_44.1kHz.wav',t,2000,68,0,272,3,,,,,926.3019759000017,927.3000387999928,927.301492859998,928.7001008999941,929.2994112000015,2.3920794204257003,t,1,0.8793646000121953,,elpida_27_10_23_ao_hugin_dots,001,2023-10-27_14h53.40.777,Oddball_task,2022.2.5,59.99998800165726,
standard,soundFiles/1000Hz_-3dBFS_3s_44.1kHz.wav',None,1000,68,1,273,0,,,,,929.2994112000015,930.3005371999898,930.3014499599915,932.584151499992,932.300258599993,3.2708288536651735,None,1,,,elpida_27_10_23_ao_hugin_dots,001,2023-10-27_14h53.40.777,Oddball_task,2022.2.5,59.99998800165726,
standard,soundFiles/1000Hz_-3dBFS_3s_44.1kHz.wav',None,1000,68,2,274,2,,,,,932.584151499992,933.5670647999941,933.5679041599899,935.6514535000024,935.5666596999945,3.052683842681935,None,1,,,elpida_27_10_23_ao_hugin_dots,001,2023-10-27_14h53.40.777,Oddball_task,2022.2.5,59.99998800165726,
standard,soundFiles/1000Hz_-3dBFS_3s_44.1kHz.wav',None,1000,68,3,275,1,,,,,935.6514535000024,936.651108399994,936.6499430599899,938.3501147999923,938.6655670999899,2.6886873882940843,None,1,,,elpida_27_10_23_ao_hugin_dots,001,2023-10-27_14h53.40.777,Oddball_task,2022.2.5,59.99998800165726,
standard,soundFiles/1000Hz_-3dBFS_3s_44.1kHz.wav',None,1000,69,0,276,2,,,,,938.6655670999899,939.6677232999937,939.6696689600024,942.3842907999933,941.6661316999962,3.7180054437323946,None,1,,,elpida_27_10_23_ao_hugin_dots,001,2023-10-27_14h53.40.777,Oddball_task,2022.2.5,59.99998800165726,
standard,soundFiles/1000Hz_-3dBFS_3s_44.1kHz.wav',None,1000,69,1,277,1,,,,,942.3842907999933,943.36587899999,943.3671295600027,946.3020984000032,945.3669158999983,3.917022275802129,None,1,,,elpida_27_10_23_ao_hugin_dots,001,2023-10-27_14h53.40.777,Oddball_task,2022.2.5,59.99998800165726,
target,soundFiles/1200Hz_-3dBFS_3s_44.1kHz.wav',t,2000,69,2,278,3,,,,,946.3020984000032,947.2999120000022,947.3005604599996,949.7499183000036,949.2984883000026,3.4372292931495956,t,1,0.8031837000016822,,elpida_27_10_23_ao_hugin_dots,001,2023-10-27_14h53.40.777,Oddball_task,2022.2.5,59.99998800165726,
standard,soundFiles/1000Hz_-3dBFS_3s_44.1kHz.wav',None,1000,69,3,279,0,,,,,949.7499183000036,950.7324036999926,950.7338931599909,952.2655303999927,952.7334297999914,2.5148821426765657,None,1,,,elpida_27_10_23_ao_hugin_dots,001,2023-10-27_14h53.40.777,Oddball_task,2022.2.5,59.99998800165726,
target,soundFiles/1200Hz_-3dBFS_3s_44.1kHz.wav',t,2000,70,0,280,3,,,,,952.7334297999914,953.7334134999983,953.7329324599953,955.4825437999971,955.7320103999955,2.7358358364908395,t,1,0.8937401000002865,,elpida_27_10_23_ao_hugin_dots,001,2023-10-27_14h53.40.777,Oddball_task,2022.2.5,59.99998800165726,
standard,soundFiles/1000Hz_-3dBFS_3s_44.1kHz.wav',None,1000,70,1,281,0,,,,,955.7320103999955,956.7320802999893,956.7323923600009,958.6212582000007,958.7479594999895,2.8845574445456106,None,1,,,elpida_27_10_23_ao_hugin_dots,001,2023-10-27_14h53.40.777,Oddball_task,2022.2.5,59.99998800165726,
standard,soundFiles/1000Hz_-3dBFS_3s_44.1kHz.wav',None,1000,70,2,282,1,,,,,958.7479594999895,959.7328473999951,959.7318259599954,962.4822544999915,961.734329999992,3.7199516967932675,None,1,,,elpida_27_10_23_ao_hugin_dots,001,2023-10-27_14h53.40.777,Oddball_task,2022.2.5,59.99998800165726,
standard,soundFiles/1000Hz_-3dBFS_3s_44.1kHz.wav',None,1000,70,3,283,2,,,,,962.4822544999915,963.481567099996,963.4822976599928,964.8482634999964,965.4977029000001,2.356732683282698,None,1,,,elpida_27_10_23_ao_hugin_dots,001,2023-10-27_14h53.40.777,Oddball_task,2022.2.5,59.99998800165726,
standard,soundFiles/1000Hz_-3dBFS_3s_44.1kHz.wav',None,1000,71,0,284,2,,,,,965.4977029000001,966.4823432999983,966.481710260002,969.315557199996,968.4823924999946,3.805255963434518,None,1,,,elpida_27_10_23_ao_hugin_dots,001,2023-10-27_14h53.40.777,Oddball_task,2022.2.5,59.99998800165726,
standard,soundFiles/1000Hz_-3dBFS_3s_44.1kHz.wav',None,1000,71,1,285,1,,,,,969.315557199996,970.2980386999989,970.2996672599941,971.4309886999981,972.2984395999956,2.104144666997881,None,1,,,elpida_27_10_23_ao_hugin_dots,001,2023-10-27_14h53.40.777,Oddball_task,2022.2.5,59.99998800165726,
standard,soundFiles/1000Hz_-3dBFS_3s_44.1kHz.wav',None,1000,71,2,286,0,,,,,972.2984395999956,973.2980001999967,973.2993088600008,975.0645360999915,975.2971436999942,2.767706840741737,None,1,,,elpida_27_10_23_ao_hugin_dots,001,2023-10-27_14h53.40.777,Oddball_task,2022.2.5,59.99998800165726,
target,soundFiles/1200Hz_-3dBFS_3s_44.1kHz.wav',t,2000,71,3,287,3,,,,,975.2971436999942,976.2981565999944,976.2993885599965,977.5975636999938,978.2981503999908,2.298708050892981,t,1,0.7859814000112237,,elpida_27_10_23_ao_hugin_dots,001,2023-10-27_14h53.40.777,Oddball_task,2022.2.5,59.99998800165726,
standard,soundFiles/1000Hz_-3dBFS_3s_44.1kHz.wav',None,1000,72,0,288,1,,,,,978.2981503999908,979.2974125999899,979.2988417599947,980.9148527999932,981.2974991999945,2.6145334561062086,None,1,,,elpida_27_10_23_ao_hugin_dots,001,2023-10-27_14h53.40.777,Oddball_task,2022.2.5,59.99998800165726,
target,soundFiles/1200Hz_-3dBFS_3s_44.1kHz.wav',t,2000,72,1,289,3,,,,,981.2974991999945,982.2974379999941,982.2977693599926,983.7816932999995,984.2982221999991,2.4826650669416725,t,1,0.8945643000042764,,elpida_27_10_23_ao_hugin_dots,001,2023-10-27_14h53.40.777,Oddball_task,2022.2.5,59.99998800165726,
standard,soundFiles/1000Hz_-3dBFS_3s_44.1kHz.wav',None,1000,72,2,290,0,,,,,984.2982221999991,985.2977538999985,985.2980948599973,986.3299693000008,987.296966199996,2.020594533165275,None,1,,986.2977724999946,elpida_27_10_23_ao_hugin_dots,001,2023-10-27_14h53.40.777,Oddball_task,2022.2.5,59.99998800165726,
standard,soundFiles/1000Hz_-3dBFS_3s_44.1kHz.wav',None,1000,72,3,291,2,,,,,987.296966199996,988.2968188999948,988.2979403599995,990.9636518999905,990.2970712999959,3.667677090920653,None,1,,,elpida_27_10_23_ao_hugin_dots,001,2023-10-27_14h53.40.777,Oddball_task,2022.2.5,59.99998800165726,
standard,soundFiles/1000Hz_-3dBFS_3s_44.1kHz.wav',None,1000,73,0,292,0,,,,,990.9636518999905,991.9637813000008,991.9645325599952,994.1154526000028,993.9637989999901,3.1359122670409665,None,1,,,elpida_27_10_23_ao_hugin_dots,001,2023-10-27_14h53.40.777,Oddball_task,2022.2.5,59.99998800165726,
target,soundFiles/1200Hz_-3dBFS_3s_44.1kHz.wav',t,2000,73,1,293,3,,,,,994.1154526000028,995.114734399991,995.1135758599951,996.6140748000034,997.1294865999953,2.496862257922985,t,1,0.802580500007025,,elpida_27_10_23_ao_hugin_dots,001,2023-10-27_14h53.40.777,Oddball_task,2022.2.5,59.99998800165726,
standard,soundFiles/1000Hz_-3dBFS_3s_44.1kHz.wav',None,1000,73,2,294,1,,,,,997.1294865999953,998.1309206000005,998.1319557599884,1000.6633254999906,1000.1305079000012,3.5230829759722266,None,1,,,elpida_27_10_23_ao_hugin_dots,001,2023-10-27_14h53.40.777,Oddball_task,2022.2.5,59.99998800165726,
standard,soundFiles/1000Hz_-3dBFS_3s_44.1kHz.wav',None,1000,73,3,295,2,,,,,1000.6633254999906,1001.6627657999925,1001.6634479599991,1002.7956187999953,1003.662757500002,2.1238406339446634,None,1,,,elpida_27_10_23_ao_hugin_dots,001,2023-10-27_14h53.40.777,Oddball_task,2022.2.5,59.99998800165726,
standard,soundFiles/1000Hz_-3dBFS_3s_44.1kHz.wav',None,1000,74,0,296,2,,,,,1003.662757500002,1004.6629239999893,1004.663390359997,1007.0480008000013,1006.663918899998,3.3802712947379634,None,1,,,elpida_27_10_23_ao_hugin_dots,001,2023-10-27_14h53.40.777,Oddball_task,2022.2.5,59.99998800165726,
target,soundFiles/1200Hz_-3dBFS_3s_44.1kHz.wav',t,2000,74,1,297,3,,,,,1007.0480008000013,1008.0463604999968,1008.0460650599955,1009.6290098000027,1010.0478715999925,2.57156372489659,t,1,0.7349433000053978,,elpida_27_10_23_ao_hugin_dots,001,2023-10-27_14h53.40.777,Oddball_task,2022.2.5,59.99998800165726,
standard,soundFiles/1000Hz_-3dBFS_3s_44.1kHz.wav',None,1000,74,2,298,0,,,,,1010.0478715999925,1011.0470455999894,1011.0463142600013,1013.8955695999903,1013.047956800001,3.832952645059719,None,1,,,elpida_27_10_23_ao_hugin_dots,001,2023-10-27_14h53.40.777,Oddball_task,2022.2.5,59.99998800165726,
standard,soundFiles/1000Hz_-3dBFS_3s_44.1kHz.wav',None,1000,74,3,299,1,,,,,1013.8955695999903,1014.8949279999943,1014.8961210599912,1017.2632778999978,1016.8967911999935,3.367266287955603,None,1,,,elpida_27_10_23_ao_hugin_dots,001,2023-10-27_14h53.40.777,Oddball_task,2022.2.5,59.99998800165726,
target,soundFiles/1200Hz_-3dBFS_3s_44.1kHz.wav',t,2000,75,0,300,3,,,,,1017.2632778999978,1018.261952899993,1018.2627218599912,1021.0630169999931,1020.2620629000012,3.796023687458751,t,1,0.702357000001939,,elpida_27_10_23_ao_hugin_dots,001,2023-10-27_14h53.40.777,Oddball_task,2022.2.5,59.99998800165726,
standard,soundFiles/1000Hz_-3dBFS_3s_44.1kHz.wav',None,1000,75,1,301,2,,,,,1021.0630169999931,1022.062168599994,1022.0621504599942,1024.362750100001,1024.0627957999968,3.2887445048740815,None,1,,1023.0621719999908,elpida_27_10_23_ao_hugin_dots,001,2023-10-27_14h53.40.777,Oddball_task,2022.2.5,59.99998800165726,
standard,soundFiles/1000Hz_-3dBFS_3s_44.1kHz.wav',None,1000,75,2,302,1,,,,,1024.362750100001,1025.3620133999939,1025.3627955599907,1027.128410099991,1027.3628688000026,2.7651184072221273,None,1,,,elpida_27_10_23_ao_hugin_dots,001,2023-10-27_14h53.40.777,Oddball_task,2022.2.5,59.99998800165726,
standard,soundFiles/1000Hz_-3dBFS_3s_44.1kHz.wav',None,1000,75,3,303,0,,,,,1027.3628688000026,1028.3611890999891,1028.3620876599991,1030.7290903999965,1030.3617667999933,3.358070718993189,None,1,,,elpida_27_10_23_ao_hugin_dots,001,2023-10-27_14h53.40.777,Oddball_task,2022.2.5,59.99998800165726,
standard,soundFiles/1000Hz_-3dBFS_3s_44.1kHz.wav',None,1000,76,0,304,0,,,,,1030.7290903999965,1031.7296872000006,1031.7321062599906,1034.0608560999972,1033.7272588999913,3.3210683568762507,None,1,,,elpida_27_10_23_ao_hugin_dots,001,2023-10-27_14h53.40.777,Oddball_task,2022.2.5,59.99998800165726,
standard,soundFiles/1000Hz_-3dBFS_3s_44.1kHz.wav',None,1000,76,1,305,2,,,,,1034.0608560999972,1035.0614253999956,1035.0629198599884,1037.3274861999962,1037.0613027999934,3.255785794032387,None,1,,,elpida_27_10_23_ao_hugin_dots,001,2023-10-27_14h53.40.777,Oddball_task,2022.2.5,59.99998800165726,
target,soundFiles/1200Hz_-3dBFS_3s_44.1kHz.wav',t,2000,76,2,306,3,,,,,1037.3274861999962,1038.3273986999993,1038.3278553599914,1039.678098999997,1040.326688999994,2.3436432200245085,t,1,0.6705237999995006,,elpida_27_10_23_ao_hugin_dots,001,2023-10-27_14h53.40.777,Oddball_task,2022.2.5,59.99998800165726,
standard,soundFiles/1000Hz_-3dBFS_3s_44.1kHz.wav',None,1000,76,3,307,1,,,,,1040.326688999994,1041.3271985000029,1041.3285635599998,1043.7284491000028,1043.3276212999917,3.396030711384735,None,1,,,elpida_27_10_23_ao_hugin_dots,001,2023-10-27_14h53.40.777,Oddball_task,2022.2.5,59.99998800165726,
standard,soundFiles/1000Hz_-3dBFS_3s_44.1kHz.wav',None,1000,77,0,308,0,,,,,1043.7284491000028,1044.7284196999972,1044.7278167599973,1046.3440346999996,1046.727278899998,2.605825066810734,None,1,,,elpida_27_10_23_ao_hugin_dots,001,2023-10-27_14h53.40.777,Oddball_task,2022.2.5,59.99998800165726,
standard,soundFiles/1000Hz_-3dBFS_3s_44.1kHz.wav',None,1000,77,1,309,1,,,,,1046.727278899998,1047.7265073000017,1047.7273902599948,1048.8265156999987,1049.7266727999959,2.089952222019198,None,1,,,elpida_27_10_23_ao_hugin_dots,001,2023-10-27_14h53.40.777,Oddball_task,2022.2.5,59.99998800165726,
target,soundFiles/1200Hz_-3dBFS_3s_44.1kHz.wav',t,2000,77,2,310,3,,,,,1049.7266727999959,1050.7273527999932,1050.7286608599927,1052.8935065999976,1052.7273642999935,3.1613796811579533,t,1,0.6439562999876216,,elpida_27_10_23_ao_hugin_dots,001,2023-10-27_14h53.40.777,Oddball_task,2022.2.5,59.99998800165726,
standard,soundFiles/1000Hz_-3dBFS_3s_44.1kHz.wav',None,1000,77,3,311,2,,,,,1052.8935065999976,1053.8937892999966,1053.894942159993,1055.4780442999909,1055.8943405000027,2.5816583282931953,None,1,,,elpida_27_10_23_ao_hugin_dots,001,2023-10-27_14h53.40.777,Oddball_task,2022.2.5,59.99998800165726,
target,soundFiles/1200Hz_-3dBFS_3s_44.1kHz.wav',t,2000,78,0,312,3,,,,,1055.8943405000027,1056.8935433000006,1056.8936972600015,1059.7445383000013,1058.8931771999924,3.8462793403428366,t,1,0.9212810000026366,1057.8928869999945,elpida_27_10_23_ao_hugin_dots,001,2023-10-27_14h53.40.777,Oddball_task,2022.2.5,59.99998800165726,
standard,soundFiles/1000Hz_-3dBFS_3s_44.1kHz.wav',None,1000,78,1,313,1,,,,,1059.7445383000013,1060.743791300003,1060.743142559989,1063.1483856999985,1062.7809249999991,3.344503681557784,None,1,,,elpida_27_10_23_ao_hugin_dots,001,2023-10-27_14h53.40.777,Oddball_task,2022.2.5,59.99998800165726,
standard,soundFiles/1000Hz_-3dBFS_3s_44.1kHz.wav',None,1000,78,2,314,0,,,,,1063.1483856999985,1064.1095692999952,1064.1113914599948,1066.2270392999926,1066.1087811000034,3.0687429273456184,None,1,,,elpida_27_10_23_ao_hugin_dots,001,2023-10-27_14h53.40.777,Oddball_task,2022.2.5,59.99998800165726,
standard,soundFiles/1000Hz_-3dBFS_3s_44.1kHz.wav',None,1000,78,3,315,2,,,,,1066.2270392999926,1067.2092334999907,1067.2128935600006,1069.1092232999945,1069.2082320999907,2.877401870200262,None,1,,,elpida_27_10_23_ao_hugin_dots,001,2023-10-27_14h53.40.777,Oddball_task,2022.2.5,59.99998800165726,
standard,soundFiles/1000Hz_-3dBFS_3s_44.1kHz.wav',None,1000,79,0,316,1,,,,,1069.2082320999907,1070.2086520000012,1070.2092076599904,1072.0260197000025,1072.208120700001,2.8061142986034806,None,1,,,elpida_27_10_23_ao_hugin_dots,001,2023-10-27_14h53.40.777,Oddball_task,2022.2.5,59.99998800165726,
standard,soundFiles/1000Hz_-3dBFS_3s_44.1kHz.wav',None,1000,79,1,317,2,,,,,1072.208120700001,1073.208165499993,1073.2094690600018,1075.9262266000005,1075.211967299998,3.719514880818692,None,1,,,elpida_27_10_23_ao_hugin_dots,001,2023-10-27_14h53.40.777,Oddball_task,2022.2.5,59.99998800165726,
target,soundFiles/1200Hz_-3dBFS_3s_44.1kHz.wav',t,2000,79,2,318,3,,,,,1075.9262266000005,1076.9263246999908,1076.9268584600024,1079.0266809000022,1078.9264481999999,3.0879225522083042,t,1,0.6426242000015918,,elpida_27_10_23_ao_hugin_dots,001,2023-10-27_14h53.40.777,Oddball_task,2022.2.5,59.99998800165726,
standard,soundFiles/1000Hz_-3dBFS_3s_44.1kHz.wav',None,1000,79,3,319,0,,,,,1079.0266809000022,1080.025522099997,1080.0267549599914,1082.3090651999955,1082.0263279999926,3.284050262385617,None,1,,,elpida_27_10_23_ao_hugin_dots,001,2023-10-27_14h53.40.777,Oddball_task,2022.2.5,59.99998800165726,
target,soundFiles/1200Hz_-3dBFS_3s_44.1kHz.wav',t,2000,80,0,320,3,,,,,1082.3090651999955,1083.3100861999992,1083.3090792599935,1086.1920302999933,1085.3250480999995,3.8820798840463273,t,1,0.7524687999975868,,elpida_27_10_23_ao_hugin_dots,001,2023-10-27_14h53.40.777,Oddball_task,2022.2.5,59.99998800165726,
standard,soundFiles/1000Hz_-3dBFS_3s_44.1kHz.wav',None,1000,80,1,321,2,,,,,1086.1920302999933,1087.1931224,1087.1926710599903,1090.1582465999963,1089.191731400002,3.9626827687859416,None,1,,,elpida_27_10_23_ao_hugin_dots,001,2023-10-27_14h53.40.777,Oddball_task,2022.2.5,59.99998800165726,
standard,soundFiles/1000Hz_-3dBFS_3s_44.1kHz.wav',None,1000,80,2,322,0,,,,,1090.1582465999963,1091.1590578999894,1091.158966459999,1093.7910157000006,1093.1577736999898,3.6255344587691463,None,1,,,elpida_27_10_23_ao_hugin_dots,001,2023-10-27_14h53.40.777,Oddball_task,2022.2.5,59.99998800165726,
standard,soundFiles/1000Hz_-3dBFS_3s_44.1kHz.wav',None,1000,80,3,323,1,,,,,1093.7910157000006,1094.7913875999948,1094.7918977600013,1097.5416916999966,1096.791462299996,3.740814065595436,None,1,,,elpida_27_10_23_ao_hugin_dots,001,2023-10-27_14h53.40.777,Oddball_task,2022.2.5,59.99998800165726,
target,soundFiles/1200Hz_-3dBFS_3s_44.1kHz.wav',t,2000,81,0,324,3,,,,,1097.5416916999966,1098.5407485999895,1098.541845059993,1100.0258629000018,1100.5404389000032,2.48093612419542,t,1,0.7196446000016294,1099.5419372999895,elpida_27_10_23_ao_hugin_dots,001,2023-10-27_14h53.40.777,Oddball_task,2022.2.5,59.99998800165726,
standard,soundFiles/1000Hz_-3dBFS_3s_44.1kHz.wav',None,1000,81,1,325,0,,,,,1100.5404389000032,1101.540802699994,1101.541657060002,1102.9587417000002,1103.5413584999915,2.4157792510803366,None,1,,,elpida_27_10_23_ao_hugin_dots,001,2023-10-27_14h53.40.777,Oddball_task,2022.2.5,59.99998800165726,
standard,soundFiles/1000Hz_-3dBFS_3s_44.1kHz.wav',None,1000,81,2,326,1,,,,,1103.5413584999915,1104.5295923999947,1104.5265859599997,1105.5583447999961,1106.5413295999897,2.013799110624408,None,1,,,elpida_27_10_23_ao_hugin_dots,001,2023-10-27_14h53.40.777,Oddball_task,2022.2.5,59.99998800165726,
standard,soundFiles/1000Hz_-3dBFS_3s_44.1kHz.wav',None,1000,81,3,327,2,,,,,1106.5413295999897,1107.5420977999893,1107.542114259991,1109.5409776000015,1109.5409776000015,2.9945406842073776,None,1,,,elpida_27_10_23_ao_hugin_dots,001,2023-10-27_14h53.40.777,Oddball_task,2022.2.5,59.99998800165726,
standard,soundFiles/1000Hz_-3dBFS_3s_44.1kHz.wav',None,1000,82,0,328,1,,,,,1109.5409776000015,1110.5408270999906,1110.5421788600027,1112.0412434000027,1112.5408110999997,2.4935830765836955,None,1,,,elpida_27_10_23_ao_hugin_dots,001,2023-10-27_14h53.40.777,Oddball_task,2022.2.5,59.99998800165726,
target,soundFiles/1200Hz_-3dBFS_3s_44.1kHz.wav',t,2000,82,1,329,3,,,,,1112.5408110999997,1113.5407581000036,1113.5421812599918,1116.190987199996,1115.5405126999976,3.6474333790171416,t,1,0.7572711999964667,,elpida_27_10_23_ao_hugin_dots,001,2023-10-27_14h53.40.777,Oddball_task,2022.2.5,59.99998800165726,
standard,soundFiles/1000Hz_-3dBFS_3s_44.1kHz.wav',None,1000,82,2,330,0,,,,,1116.190987199996,1117.1910546,1117.1908680599984,1118.4735807999969,1119.2059653999895,2.2717483735143436,None,1,,,elpida_27_10_23_ao_hugin_dots,001,2023-10-27_14h53.40.777,Oddball_task,2022.2.5,59.99998800165726,
standard,soundFiles/1000Hz_-3dBFS_3s_44.1kHz.wav',None,1000,82,3,331,2,,,,,1119.2059653999895,1120.2062124999939,1120.2076528599966,1121.6905495999963,1122.2061958999984,2.474386701234895,None,1,,,elpida_27_10_23_ao_hugin_dots,001,2023-10-27_14h53.40.777,Oddball_task,2022.2.5,59.99998800165726,
target,soundFiles/1200Hz_-3dBFS_3s_44.1kHz.wav',t,2000,83,0,332,3,,,,,1122.2061958999984,1123.206711699997,1123.207500560001,1124.3567826999933,1125.2061706999957,2.1407263018680522,t,1,0.8467272999987472,,elpida_27_10_23_ao_hugin_dots,001,2023-10-27_14h53.40.777,Oddball_task,2022.2.5,59.99998800165726,
standard,soundFiles/1000Hz_-3dBFS_3s_44.1kHz.wav',None,1000,83,1,333,1,,,,,1125.2061706999957,1126.2060540999955,1126.206841959992,1128.872089700002,1128.2062450999947,3.6547255113103656,None,1,,,elpida_27_10_23_ao_hugin_dots,001,2023-10-27_14h53.40.777,Oddball_task,2022.2.5,59.99998800165726,
standard,soundFiles/1000Hz_-3dBFS_3s_44.1kHz.wav',None,1000,83,2,334,0,,,,,1128.872089700002,1129.8730246999912,1129.873485059997,1131.340430199998,1131.8728721999942,2.4564386970609817,None,1,,,elpida_27_10_23_ao_hugin_dots,001,2023-10-27_14h53.40.777,Oddball_task,2022.2.5,59.99998800165726,
standard,soundFiles/1000Hz_-3dBFS_3s_44.1kHz.wav',None,1000,83,3,335,2,,,,,1131.8728721999942,1132.8729584999965,1132.872767160002,1134.3726171000017,1134.8719173999998,2.486755000373361,None,1,,,elpida_27_10_23_ao_hugin_dots,001,2023-10-27_14h53.40.777,Oddball_task,2022.2.5,59.99998800165726,
