trial,file,corrAns,tone,trials.thisRepN,trials.thisTrialN,trials.thisN,trials.thisIndex,trials_2.thisRepN,trials_2.thisTrialN,trials_2.thisN,trials_2.thisIndex,instructions.started,key_resp_1.started,key_resp_1.keys,key_resp_1.rt,fixation.started,response.started,sound_1.started,sound_1.stopped,response.keys,response.corr,feedback_text.started,response.stopped,feedback_text.stopped,instructions_2.started,key_resp_2.started,key_resp_2.keys,key_resp_2.rt,participant,session,date,expName,psychopyVersion,frameRate,
,,,,,,,,,,,,34.604043600000296,34.604043600000296,space,18.04623150000043,,,,,,,,,,,,,,elpida_22_10_23,office_hugin04,2023-10-22_17h49.11.638,Oddball_task,2022.2.5,59.9816696014124,
standard,soundFiles/250Hz_44100Hz_16bit_05sec.wav',None,1000,0,0,0,3,,,,,,,,,52.68463570000131,53.66937870000038,53.669418460001545,54.67026910000095,None,1,56.17212230000041,,,,,,,elpida_22_10_23,office_hugin04,2023-10-22_17h49.11.638,Oddball_task,2022.2.5,59.9816696014124,
standard,soundFiles/250Hz_44100Hz_16bit_05sec.wav',None,1000,0,1,1,0,,,,,,,,,57.172346299999845,58.1571941000002,58.15678786000135,,None,1,60.67590480000035,60.65954150000107,,,,,,elpida_22_10_23,office_hugin04,2023-10-22_17h49.11.638,Oddball_task,2022.2.5,59.9816696014124,
standard,soundFiles/250Hz_44100Hz_16bit_05sec.wav',None,1000,0,2,2,2,,,,,,,,,61.67739430000074,62.660343500001545,62.66098716000088,,None,1,65.17958929999986,65.16300260000025,,,,,,elpida_22_10_23,office_hugin04,2023-10-22_17h49.11.638,Oddball_task,2022.2.5,59.9816696014124,
standard,soundFiles/250Hz_44100Hz_16bit_05sec.wav',None,1000,0,3,3,1,,,,,,,,,66.17984690000048,67.16615260000071,67.16581626000115,,None,1,69.68301020000035,69.66613450000114,,,,,,elpida_22_10_23,office_hugin04,2023-10-22_17h49.11.638,Oddball_task,2022.2.5,59.9816696014124,
target,soundFiles/1200Hz_-3dBFS_3s_44.1kHz.wav',t,2000,0,4,4,4,,,,,,,,,70.6837800000012,71.66789450000033,71.66804616000044,,None,0,74.17049829999996,,75.17123450000145,,,,,elpida_22_10_23,office_hugin04,2023-10-22_17h49.11.638,Oddball_task,2022.2.5,59.9816696014124,
standard,soundFiles/250Hz_44100Hz_16bit_05sec.wav',None,1000,1,0,5,1,,,,,,,,,75.17123450000145,76.15505100000155,76.15505206000088,,None,1,78.67367850000119,78.65707980000116,,,,,,elpida_22_10_23,office_hugin04,2023-10-22_17h49.11.638,Oddball_task,2022.2.5,59.9816696014124,
target,soundFiles/1200Hz_-3dBFS_3s_44.1kHz.wav',t,2000,1,1,6,4,,,,,,,,,79.67656180000085,80.65878220000013,80.65937736000123,,None,0,83.17894030000025,83.16106720000062,,,,,,elpida_22_10_23,office_hugin04,2023-10-22_17h49.11.638,Oddball_task,2022.2.5,59.9816696014124,
standard,soundFiles/250Hz_44100Hz_16bit_05sec.wav',None,1000,1,2,7,2,,,,,,,,,84.17897390000144,85.16306470000018,85.16347906000155,,None,1,87.73479520000001,87.68676320000122,,,,,,elpida_22_10_23,office_hugin04,2023-10-22_17h49.11.638,Oddball_task,2022.2.5,59.9816696014124,
standard,soundFiles/250Hz_44100Hz_16bit_05sec.wav',None,1000,1,3,8,0,,,,,,,,,88.68194480000057,89.6676492000006,89.66807836000007,90.6670238000006,None,1,92.18612770000072,92.17076530000122,,,,,,elpida_22_10_23,office_hugin04,2023-10-22_17h49.11.638,Oddball_task,2022.2.5,59.9816696014124,
standard,soundFiles/250Hz_44100Hz_16bit_05sec.wav',None,1000,1,4,9,3,,,,,,,,,93.18585650000023,94.15466080000078,94.1545457600001,,None,1,96.67236920000141,96.65577180000037,,,,,,elpida_22_10_23,office_hugin04,2023-10-22_17h49.11.638,Oddball_task,2022.2.5,59.9816696014124,
,,,,,,,,,,,,,,,,,,,,,,,,,97.67716600000131,97.67716600000131,space,3.2683119000012084,elpida_22_10_23,office_hugin04,2023-10-22_17h49.11.638,Oddball_task,2022.2.5,59.9816696014124,
standard,soundFiles/250Hz_44100Hz_16bit_05sec.wav',None,1000,,,,,0,0,0,3,,,,,100.99172400000134,101.97599130000162,101.97604706000092,,None,1,,,,,,,,elpida_22_10_23,office_hugin04,2023-10-22_17h49.11.638,Oddball_task,2022.2.5,59.9816696014124,
standard,soundFiles/250Hz_44100Hz_16bit_05sec.wav',None,1000,,,,,0,1,1,1,,,,,104.47939510000106,105.46263309999995,105.46256076000063,,None,1,,107.96531940000023,,,,,,elpida_22_10_23,office_hugin04,2023-10-22_17h49.11.638,Oddball_task,2022.2.5,59.9816696014124,
standard,soundFiles/250Hz_44100Hz_16bit_05sec.wav',None,1000,,,,,0,2,2,0,,,,,107.98262980000072,108.96629930000017,108.96623006000081,,None,1,,111.46778930000073,,,,,,elpida_22_10_23,office_hugin04,2023-10-22_17h49.11.638,Oddball_task,2022.2.5,59.9816696014124,
standard,soundFiles/250Hz_44100Hz_16bit_05sec.wav',None,1000,,,,,0,3,3,2,,,,,111.48618309999983,112.47048900000118,112.47100696000015,,None,1,,114.97126460000072,,,,,,elpida_22_10_23,office_hugin04,2023-10-22_17h49.11.638,Oddball_task,2022.2.5,59.9816696014124,
target,soundFiles/1200Hz_-3dBFS_3s_44.1kHz.wav',t,2000,,,,,0,4,4,4,,,,,114.9876576000006,115.97282630000154,115.97218306000067,,None,0,,118.47439360000135,,,,,,elpida_22_10_23,office_hugin04,2023-10-22_17h49.11.638,Oddball_task,2022.2.5,59.9816696014124,
standard,soundFiles/250Hz_44100Hz_16bit_05sec.wav',None,1000,,,,,1,0,5,0,,,,,118.49093830000129,119.47407410000051,119.47474466000094,120.47593000000052,None,1,,121.97631739999997,,,,,,elpida_22_10_23,office_hugin04,2023-10-22_17h49.11.638,Oddball_task,2022.2.5,59.9816696014124,
standard,soundFiles/250Hz_44100Hz_16bit_05sec.wav',None,1000,,,,,1,1,6,3,,,,,121.99304250000023,122.96076210000138,122.96077646000012,,None,1,,125.46393090000129,,,,,,elpida_22_10_23,office_hugin04,2023-10-22_17h49.11.638,Oddball_task,2022.2.5,59.9816696014124,
standard,soundFiles/250Hz_44100Hz_16bit_05sec.wav',None,1000,,,,,1,2,7,1,,,,,125.48054080000111,126.46419969999988,126.46409126000034,,None,1,,128.96610300000066,,,,,,elpida_22_10_23,office_hugin04,2023-10-22_17h49.11.638,Oddball_task,2022.2.5,59.9816696014124,
target,soundFiles/1200Hz_-3dBFS_3s_44.1kHz.wav',t,2000,,,,,1,3,8,4,,,,,128.9825467999999,129.96732310000152,129.96676956000155,,None,0,,132.4691115000005,,,,,,elpida_22_10_23,office_hugin04,2023-10-22_17h49.11.638,Oddball_task,2022.2.5,59.9816696014124,
standard,soundFiles/250Hz_44100Hz_16bit_05sec.wav',None,1000,,,,,1,4,9,2,,,,,132.4860815000011,133.46969960000024,133.46987696000141,,None,1,,135.9718810000013,,,,,,elpida_22_10_23,office_hugin04,2023-10-22_17h49.11.638,Oddball_task,2022.2.5,59.9816696014124,
standard,soundFiles/250Hz_44100Hz_16bit_05sec.wav',None,1000,,,,,2,0,10,0,,,,,135.9886146000008,136.972823600001,136.972483860001,,None,1,,139.47572370000125,,,,,,elpida_22_10_23,office_hugin04,2023-10-22_17h49.11.638,Oddball_task,2022.2.5,59.9816696014124,
standard,soundFiles/250Hz_44100Hz_16bit_05sec.wav',None,1000,,,,,2,1,11,3,,,,,139.49104870000156,140.45927800000027,140.4594868600012,,None,1,,142.96075010000095,,,,,,elpida_22_10_23,office_hugin04,2023-10-22_17h49.11.638,Oddball_task,2022.2.5,59.9816696014124,
target,soundFiles/1200Hz_-3dBFS_3s_44.1kHz.wav',t,2000,,,,,2,2,12,4,,,,,142.97724090000156,143.96242740000162,143.96209026000142,,None,0,,146.46457900000132,,,,,,elpida_22_10_23,office_hugin04,2023-10-22_17h49.11.638,Oddball_task,2022.2.5,59.9816696014124,
standard,soundFiles/250Hz_44100Hz_16bit_05sec.wav',None,1000,,,,,2,3,13,1,,,,,146.48198820000107,147.46568190000107,147.46467476000143,,None,1,,149.9672137000016,,,,,,elpida_22_10_23,office_hugin04,2023-10-22_17h49.11.638,Oddball_task,2022.2.5,59.9816696014124,
standard,soundFiles/250Hz_44100Hz_16bit_05sec.wav',None,1000,,,,,2,4,14,2,,,,,149.98427080000147,150.96770490000017,150.96764456000128,,None,1,,153.46980480000093,,,,,,elpida_22_10_23,office_hugin04,2023-10-22_17h49.11.638,Oddball_task,2022.2.5,59.9816696014124,
standard,soundFiles/250Hz_44100Hz_16bit_05sec.wav',None,1000,,,,,3,0,15,1,,,,,153.4864873000006,154.47128930000144,154.4710135600013,,None,1,,156.97293630000058,,,,,,elpida_22_10_23,office_hugin04,2023-10-22_17h49.11.638,Oddball_task,2022.2.5,59.9816696014124,
standard,soundFiles/250Hz_44100Hz_16bit_05sec.wav',None,1000,,,,,3,1,16,3,,,,,156.98922529999982,157.97430370000075,157.97311485999998,,None,1,,160.47746929999994,,,,,,elpida_22_10_23,office_hugin04,2023-10-22_17h49.11.638,Oddball_task,2022.2.5,59.9816696014124,
target,soundFiles/1200Hz_-3dBFS_3s_44.1kHz.wav',t,2000,,,,,3,2,17,4,,,,,160.49249490000147,161.4616941000004,161.4615313600003,,None,0,,163.96207140000115,,,,,,elpida_22_10_23,office_hugin04,2023-10-22_17h49.11.638,Oddball_task,2022.2.5,59.9816696014124,
standard,soundFiles/250Hz_44100Hz_16bit_05sec.wav',None,1000,,,,,3,3,18,2,,,,,163.97867740000038,164.96276960000068,164.96276646000078,,None,1,,167.46459930000128,,,,,,elpida_22_10_23,office_hugin04,2023-10-22_17h49.11.638,Oddball_task,2022.2.5,59.9816696014124,
standard,soundFiles/250Hz_44100Hz_16bit_05sec.wav',None,1000,,,,,3,4,19,0,,,,,167.4813516000013,168.4658330000002,168.4650130599999,,None,1,,170.96754470000087,,,,,,elpida_22_10_23,office_hugin04,2023-10-22_17h49.11.638,Oddball_task,2022.2.5,59.9816696014124,
standard,soundFiles/250Hz_44100Hz_16bit_05sec.wav',None,1000,,,,,4,0,20,3,,,,,170.9845191000004,171.96874260000004,171.96856626000007,,None,1,,174.4703511000007,,,,,,elpida_22_10_23,office_hugin04,2023-10-22_17h49.11.638,Oddball_task,2022.2.5,59.9816696014124,
standard,soundFiles/250Hz_44100Hz_16bit_05sec.wav',None,1000,,,,,4,1,21,1,,,,,174.48788080000122,175.4929146000013,175.47493646000075,,None,1,,,,,,,,elpida_22_10_23,office_hugin04,2023-10-22_17h49.11.638,Oddball_task,2022.2.5,59.9816696014124,
standard,soundFiles/250Hz_44100Hz_16bit_05sec.wav',None,1000,,,,,4,2,22,2,,,,,177.9902047000014,178.97462390000146,178.97515156000154,,None,1,,181.47658650000085,,,,,,elpida_22_10_23,office_hugin04,2023-10-22_17h49.11.638,Oddball_task,2022.2.5,59.9816696014124,
target,soundFiles/1200Hz_-3dBFS_3s_44.1kHz.wav',t,2000,,,,,4,3,23,4,,,,,181.49312770000142,182.46023770000102,182.46019066000153,,None,0,,184.9629832999999,,,,,,elpida_22_10_23,office_hugin04,2023-10-22_17h49.11.638,Oddball_task,2022.2.5,59.9816696014124,
standard,soundFiles/250Hz_44100Hz_16bit_05sec.wav',None,1000,,,,,4,4,24,0,,,,,184.97933960000046,185.96379180000076,185.9643552600006,,None,1,,188.46586220000063,,,,,,elpida_22_10_23,office_hugin04,2023-10-22_17h49.11.638,Oddball_task,2022.2.5,59.9816696014124,
standard,soundFiles/250Hz_44100Hz_16bit_05sec.wav',None,1000,,,,,5,0,25,2,,,,,188.48277159999998,189.46650560000126,189.46716976000025,,None,1,,191.96802470000148,,,,,,elpida_22_10_23,office_hugin04,2023-10-22_17h49.11.638,Oddball_task,2022.2.5,59.9816696014124,
standard,soundFiles/250Hz_44100Hz_16bit_05sec.wav',None,1000,,,,,5,1,26,0,,,,,191.98536290000084,192.96993199999997,192.9699752600005,,None,1,,195.47146820000125,,,,,,elpida_22_10_23,office_hugin04,2023-10-22_17h49.11.638,Oddball_task,2022.2.5,59.9816696014124,
standard,soundFiles/250Hz_44100Hz_16bit_05sec.wav',None,1000,,,,,5,2,27,1,,,,,195.48849510000036,196.47344350000094,196.47345236000146,,None,1,,198.97468630000003,,,,,,elpida_22_10_23,office_hugin04,2023-10-22_17h49.11.638,Oddball_task,2022.2.5,59.9816696014124,
,,,,,,,,,,,,,,,,198.99317260000134,,,,,,,,,,,,,,,,,,,
