trial,file,corrAns,tone,trials.thisRepN,trials.thisTrialN,trials.thisN,trials.thisIndex,trials_2.thisRepN,trials_2.thisTrialN,trials_2.thisN,trials_2.thisIndex,instructions.started,key_resp_1.started,key_resp_1.keys,key_resp_1.rt,fixation.started,response.started,sound_1.started,response.stopped,response.keys,response.corr,feedback_text.started,sound_1.stopped,instructions_2.started,key_resp_2.started,key_resp_2.keys,key_resp_2.rt,participant,session,date,expName,psychopyVersion,frameRate,
,,,,,,,,,,,,33.152015499999834,33.152015499999834,space,15.211724700000559,,,,,,,,,,,,,elpida_22_10_23,office_hugin04,2023-10-22_17h52.40.670,Oddball_task,2022.2.5,59.96688628500389,
standard,soundFiles/250Hz_44100Hz_16bit_05sec.wav',None,1000,0,0,0,2,,,,,,,,,48.41083620000063,49.37913280000066,49.37945760000002,51.882038400000965,None,1,51.9140167000005,,,,,,elpida_22_10_23,office_hugin04,2023-10-22_17h52.40.670,Oddball_task,2022.2.5,59.96688628500389,
target,soundFiles/1200Hz_-3dBFS_3s_44.1kHz.wav',t,2000,0,1,1,4,,,,,,,,,52.897942900001,53.882557000000816,53.88284139999996,56.38458200000059,None,0,56.402234000001044,,,,,,elpida_22_10_23,office_hugin04,2023-10-22_17h52.40.670,Oddball_task,2022.2.5,59.96688628500389,
standard,soundFiles/250Hz_44100Hz_16bit_05sec.wav',None,1000,0,2,2,0,,,,,,,,,57.40181130000019,58.38619760000074,58.386339300001055,60.88835950000066,None,1,60.905895699999746,,,,,,elpida_22_10_23,office_hugin04,2023-10-22_17h52.40.670,Oddball_task,2022.2.5,59.96688628500389,
standard,soundFiles/250Hz_44100Hz_16bit_05sec.wav',None,1000,0,3,3,1,,,,,,,,,61.90610209999977,62.892991300001086,62.89024860000063,65.39225670000087,None,1,65.40876360000038,63.89133589999983,,,,,elpida_22_10_23,office_hugin04,2023-10-22_17h52.40.670,Oddball_task,2022.2.5,59.96688628500389,
standard,soundFiles/250Hz_44100Hz_16bit_05sec.wav',None,1000,0,4,4,3,,,,,,,,,66.40920820000065,67.37828810000065,67.37830990000111,69.87957460000143,None,1,69.89585390000138,,,,,,elpida_22_10_23,office_hugin04,2023-10-22_17h52.40.670,Oddball_task,2022.2.5,59.96688628500389,
standard,soundFiles/250Hz_44100Hz_16bit_05sec.wav',None,1000,1,0,5,0,,,,,,,,,70.89765009999974,71.88069390000055,71.88038299999971,74.3833040999998,None,1,74.39914680000038,,,,,,elpida_22_10_23,office_hugin04,2023-10-22_17h52.40.670,Oddball_task,2022.2.5,59.96688628500389,
standard,soundFiles/250Hz_44100Hz_16bit_05sec.wav',None,1000,1,1,6,3,,,,,,,,,75.40033109999968,76.38449949999995,76.38403290000133,78.88684210000065,None,1,78.90381450000132,,,,,,elpida_22_10_23,office_hugin04,2023-10-22_17h52.40.670,Oddball_task,2022.2.5,59.96688628500389,
standard,soundFiles/250Hz_44100Hz_16bit_05sec.wav',None,1000,1,2,7,1,,,,,,,,,79.9049726000012,80.88933410000027,80.88890210000136,83.39096710000013,None,1,83.40806359999988,,,,,,elpida_22_10_23,office_hugin04,2023-10-22_17h52.40.670,Oddball_task,2022.2.5,59.96688628500389,
target,soundFiles/1200Hz_-3dBFS_3s_44.1kHz.wav',t,2000,1,3,8,4,,,,,,,,,84.40816770000129,85.39722799999981,85.38003420000132,,None,0,87.91107290000036,,,,,,elpida_22_10_23,office_hugin04,2023-10-22_17h52.40.670,Oddball_task,2022.2.5,59.96688628500389,
standard,soundFiles/250Hz_44100Hz_16bit_05sec.wav',None,1000,1,4,9,2,,,,,,,,,88.91203200000018,89.8800867000009,89.87978269999985,92.38210700000127,None,1,92.39869340000041,,,,,,elpida_22_10_23,office_hugin04,2023-10-22_17h52.40.670,Oddball_task,2022.2.5,59.96688628500389,
,,,,,,,,,,,,,,,,,,,,,,,,93.3997973000005,93.3997973000005,space,1.7159525999995822,elpida_22_10_23,office_hugin04,2023-10-22_17h52.40.670,Oddball_task,2022.2.5,59.96688628500389,
standard,soundFiles/250Hz_44100Hz_16bit_05sec.wav',None,1000,,,,,0,0,0,1,,,,,95.15006240000002,96.1185244999997,96.1186443000006,98.62008480000077,None,1,,,,,,,elpida_22_10_23,office_hugin04,2023-10-22_17h52.40.670,Oddball_task,2022.2.5,59.96688628500389,
standard,soundFiles/250Hz_44100Hz_16bit_05sec.wav',None,1000,,,,,0,1,1,3,,,,,98.63655420000032,99.6220914000005,99.62074460000076,,None,1,,100.62110519999987,,,,,elpida_22_10_23,office_hugin04,2023-10-22_17h52.40.670,Oddball_task,2022.2.5,59.96688628500389,
target,soundFiles/1200Hz_-3dBFS_3s_44.1kHz.wav',t,2000,,,,,0,2,2,4,,,,,102.15986210000119,103.12376260000019,103.12349150000045,105.62575149999975,None,0,,,,,,,elpida_22_10_23,office_hugin04,2023-10-22_17h52.40.670,Oddball_task,2022.2.5,59.96688628500389,
standard,soundFiles/250Hz_44100Hz_16bit_05sec.wav',None,1000,,,,,0,3,3,0,,,,,105.643006100001,106.62693039999976,106.62763989999985,109.13031589999991,None,1,,,,,,,elpida_22_10_23,office_hugin04,2023-10-22_17h52.40.670,Oddball_task,2022.2.5,59.96688628500389,
standard,soundFiles/250Hz_44100Hz_16bit_05sec.wav',None,1000,,,,,0,4,4,2,,,,,109.14619630000016,110.12965650000115,110.1304082000006,112.63167430000067,None,1,,,,,,,elpida_22_10_23,office_hugin04,2023-10-22_17h52.40.670,Oddball_task,2022.2.5,59.96688628500389,
standard,soundFiles/250Hz_44100Hz_16bit_05sec.wav',None,1000,,,,,1,0,5,0,,,,,112.64843740000106,113.65449230000013,113.6364236999998,,None,1,,,,,,,elpida_22_10_23,office_hugin04,2023-10-22_17h52.40.670,Oddball_task,2022.2.5,59.96688628500389,
standard,soundFiles/250Hz_44100Hz_16bit_05sec.wav',None,1000,,,,,1,1,6,3,,,,,116.13635890000114,117.11861920000047,117.12016060000133,119.62579750000077,None,1,,,,,,,elpida_22_10_23,office_hugin04,2023-10-22_17h52.40.670,Oddball_task,2022.2.5,59.96688628500389,
standard,soundFiles/250Hz_44100Hz_16bit_05sec.wav',None,1000,,,,,1,2,7,2,,,,,119.65643090000049,120.6218031999997,120.6217398000008,123.12390419999974,None,1,,121.62231090000023,,,,,elpida_22_10_23,office_hugin04,2023-10-22_17h52.40.670,Oddball_task,2022.2.5,59.96688628500389,
target,soundFiles/1200Hz_-3dBFS_3s_44.1kHz.wav',t,2000,,,,,1,3,8,4,,,,,123.14029810000102,124.12498140000025,124.12446920000002,126.62766440000087,None,0,,,,,,,elpida_22_10_23,office_hugin04,2023-10-22_17h52.40.670,Oddball_task,2022.2.5,59.96688628500389,
standard,soundFiles/250Hz_44100Hz_16bit_05sec.wav',None,1000,,,,,1,4,9,1,,,,,126.6451391999999,127.62866089999989,127.62760909999997,130.1304713999998,None,1,,,,,,,elpida_22_10_23,office_hugin04,2023-10-22_17h52.40.670,Oddball_task,2022.2.5,59.96688628500389,
standard,soundFiles/250Hz_44100Hz_16bit_05sec.wav',None,1000,,,,,2,0,10,2,,,,,130.14660540000114,131.13038960000085,131.13072889999967,133.63274900000033,None,1,,,,,,,elpida_22_10_23,office_hugin04,2023-10-22_17h52.40.670,Oddball_task,2022.2.5,59.96688628500389,
standard,soundFiles/250Hz_44100Hz_16bit_05sec.wav',None,1000,,,,,2,1,11,3,,,,,133.64934330000142,134.61664829999972,134.6176787000004,137.1187227999999,None,1,,,,,,,elpida_22_10_23,office_hugin04,2023-10-22_17h52.40.670,Oddball_task,2022.2.5,59.96688628500389,
standard,soundFiles/250Hz_44100Hz_16bit_05sec.wav',None,1000,,,,,2,2,12,0,,,,,137.13530890000038,138.12376519999998,138.12255110000115,,None,1,,,,,,,elpida_22_10_23,office_hugin04,2023-10-22_17h52.40.670,Oddball_task,2022.2.5,59.96688628500389,
standard,soundFiles/250Hz_44100Hz_16bit_05sec.wav',None,1000,,,,,2,3,13,1,,,,,140.63830589999998,141.6223912000005,141.62297949999993,144.12610900000072,None,1,,142.6231133000001,,,,,elpida_22_10_23,office_hugin04,2023-10-22_17h52.40.670,Oddball_task,2022.2.5,59.96688628500389,
target,soundFiles/1200Hz_-3dBFS_3s_44.1kHz.wav',t,2000,,,,,2,4,14,4,,,,,144.14213230000132,145.1255359000006,145.12570830000004,147.62950450000062,None,0,,,,,,,elpida_22_10_23,office_hugin04,2023-10-22_17h52.40.670,Oddball_task,2022.2.5,59.96688628500389,
standard,soundFiles/250Hz_44100Hz_16bit_05sec.wav',None,1000,,,,,3,0,15,3,,,,,147.645071500001,148.62782030000017,148.62795949999963,151.13063110000076,None,1,,,,,,,elpida_22_10_23,office_hugin04,2023-10-22_17h52.40.670,Oddball_task,2022.2.5,59.96688628500389,
standard,soundFiles/250Hz_44100Hz_16bit_05sec.wav',None,1000,,,,,3,1,16,1,,,,,151.1472872000013,152.13145059999988,152.13127040000109,154.63450850000117,None,1,,,,,,,elpida_22_10_23,office_hugin04,2023-10-22_17h52.40.670,Oddball_task,2022.2.5,59.96688628500389,
target,soundFiles/1200Hz_-3dBFS_3s_44.1kHz.wav',t,2000,,,,,3,2,17,4,,,,,154.65047380000033,155.61740120000104,155.6190628000004,158.12092510000002,None,0,,,,,,,elpida_22_10_23,office_hugin04,2023-10-22_17h52.40.670,Oddball_task,2022.2.5,59.96688628500389,
standard,soundFiles/250Hz_44100Hz_16bit_05sec.wav',None,1000,,,,,3,3,18,0,,,,,158.13638530000026,159.1207585000011,159.12072540000008,161.62312190000011,None,1,,,,,,,elpida_22_10_23,office_hugin04,2023-10-22_17h52.40.670,Oddball_task,2022.2.5,59.96688628500389,
standard,soundFiles/250Hz_44100Hz_16bit_05sec.wav',None,1000,,,,,3,4,19,2,,,,,161.6399343000012,162.62803379999968,162.62806249999994,165.12590470000032,None,1,,,,,,,elpida_22_10_23,office_hugin04,2023-10-22_17h52.40.670,Oddball_task,2022.2.5,59.96688628500389,
standard,soundFiles/250Hz_44100Hz_16bit_05sec.wav',None,1000,,,,,4,0,20,1,,,,,165.1424545000009,166.12731800000074,166.12666759999956,168.6288166000013,None,1,,,,,,,elpida_22_10_23,office_hugin04,2023-10-22_17h52.40.670,Oddball_task,2022.2.5,59.96688628500389,
standard,soundFiles/250Hz_44100Hz_16bit_05sec.wav',None,1000,,,,,4,1,21,2,,,,,168.64560270000038,169.62985900000058,169.62933410000005,172.13219870000103,None,1,,,,,,,elpida_22_10_23,office_hugin04,2023-10-22_17h52.40.670,Oddball_task,2022.2.5,59.96688628500389,
standard,soundFiles/250Hz_44100Hz_16bit_05sec.wav',None,1000,,,,,4,2,22,0,,,,,172.14883080000072,173.13255850000132,173.13211880000017,,None,1,,,,,,,elpida_22_10_23,office_hugin04,2023-10-22_17h52.40.670,Oddball_task,2022.2.5,59.96688628500389,
target,soundFiles/1200Hz_-3dBFS_3s_44.1kHz.wav',t,2000,,,,,4,3,23,4,,,,,175.63677890000145,176.61927800000012,176.6189959000003,179.12144530000114,None,0,,,,,,,elpida_22_10_23,office_hugin04,2023-10-22_17h52.40.670,Oddball_task,2022.2.5,59.96688628500389,
standard,soundFiles/250Hz_44100Hz_16bit_05sec.wav',None,1000,,,,,4,4,24,3,,,,,179.13738310000008,180.12176180000097,180.12175750000097,182.62435320000077,None,1,,,,,,,elpida_22_10_23,office_hugin04,2023-10-22_17h52.40.670,Oddball_task,2022.2.5,59.96688628500389,
standard,soundFiles/250Hz_44100Hz_16bit_05sec.wav',None,1000,,,,,5,0,25,3,,,,,182.64016940000147,183.62665930000003,183.6259097000002,186.12674289999995,None,1,,,,,,,elpida_22_10_23,office_hugin04,2023-10-22_17h52.40.670,Oddball_task,2022.2.5,59.96688628500389,
standard,soundFiles/250Hz_44100Hz_16bit_05sec.wav',None,1000,,,,,5,1,26,2,,,,,186.1435620000011,187.12676629999987,187.1278768000011,189.630110600001,None,1,,,,,,,elpida_22_10_23,office_hugin04,2023-10-22_17h52.40.670,Oddball_task,2022.2.5,59.96688628500389,
standard,soundFiles/250Hz_44100Hz_16bit_05sec.wav',None,1000,,,,,5,2,27,1,,,,,189.64658430000054,190.63026979999995,190.6301906000008,193.13463630000115,None,1,,,,,,,elpida_22_10_23,office_hugin04,2023-10-22_17h52.40.670,Oddball_task,2022.2.5,59.96688628500389,
standard,soundFiles/250Hz_44100Hz_16bit_05sec.wav',None,1000,,,,,5,3,28,0,,,,,193.14963900000112,194.13453540000046,194.133871,,None,1,,,,,,,elpida_22_10_23,office_hugin04,2023-10-22_17h52.40.670,Oddball_task,2022.2.5,59.96688628500389,
target,soundFiles/1200Hz_-3dBFS_3s_44.1kHz.wav',t,2000,,,,,5,4,29,4,,,,,196.63649160000023,197.62014400000044,197.62055300000065,200.12213630000042,None,0,,,,,,,elpida_22_10_23,office_hugin04,2023-10-22_17h52.40.670,Oddball_task,2022.2.5,59.96688628500389,
standard,soundFiles/250Hz_44100Hz_16bit_05sec.wav',None,1000,,,,,6,0,30,2,,,,,200.13824410000052,201.12288210000042,201.12186830000064,203.62658519999968,None,1,,,,,,,elpida_22_10_23,office_hugin04,2023-10-22_17h52.40.670,Oddball_task,2022.2.5,59.96688628500389,
standard,soundFiles/250Hz_44100Hz_16bit_05sec.wav',None,1000,,,,,6,1,31,0,,,,,203.64143500000137,204.6316139999999,204.63149300000077,207.1482143000012,None,1,,,,,,,elpida_22_10_23,office_hugin04,2023-10-22_17h52.40.670,Oddball_task,2022.2.5,59.96688628500389,
target,soundFiles/1200Hz_-3dBFS_3s_44.1kHz.wav',t,2000,,,,,6,2,32,4,,,,,207.1978177000001,208.1282697000006,208.1283155000001,,None,0,,209.12889460000042,,,,,elpida_22_10_23,office_hugin04,2023-10-22_17h52.40.670,Oddball_task,2022.2.5,59.96688628500389,
standard,soundFiles/250Hz_44100Hz_16bit_05sec.wav',None,1000,,,,,6,3,33,3,,,,,210.6652219000007,211.63118469999972,211.63120160000108,,None,1,,,,,,,elpida_22_10_23,office_hugin04,2023-10-22_17h52.40.670,Oddball_task,2022.2.5,59.96688628500389,
standard,soundFiles/250Hz_44100Hz_16bit_05sec.wav',None,1000,,,,,6,4,34,1,,,,,214.18791390000115,215.13434640000014,215.13391000000047,,None,1,,,,,,,elpida_22_10_23,office_hugin04,2023-10-22_17h52.40.670,Oddball_task,2022.2.5,59.96688628500389,
standard,soundFiles/250Hz_44100Hz_16bit_05sec.wav',None,1000,,,,,7,0,35,0,,,,,217.6361506000012,218.66486919999988,218.64353660000052,,None,1,,,,,,,elpida_22_10_23,office_hugin04,2023-10-22_17h52.40.670,Oddball_task,2022.2.5,59.96688628500389,
standard,soundFiles/250Hz_44100Hz_16bit_05sec.wav',None,1000,,,,,7,1,36,3,,,,,221.13977200000045,222.12540100000115,222.1258811000007,224.6256529000002,None,1,,,,,,,elpida_22_10_23,office_hugin04,2023-10-22_17h52.40.670,Oddball_task,2022.2.5,59.96688628500389,
standard,soundFiles/250Hz_44100Hz_16bit_05sec.wav',None,1000,,,,,7,2,37,2,,,,,224.64232340000126,225.62647920000018,225.6266157000009,228.1285665000014,None,1,,,,,,,elpida_22_10_23,office_hugin04,2023-10-22_17h52.40.670,Oddball_task,2022.2.5,59.96688628500389,
standard,soundFiles/250Hz_44100Hz_16bit_05sec.wav',None,1000,,,,,7,3,38,1,,,,,228.14533120000124,229.12977070000125,229.12968160000128,231.63120400000116,None,1,,,,,,,elpida_22_10_23,office_hugin04,2023-10-22_17h52.40.670,Oddball_task,2022.2.5,59.96688628500389,
target,soundFiles/1200Hz_-3dBFS_3s_44.1kHz.wav',t,2000,,,,,7,4,39,4,,,,,231.64767230000143,232.63369020000027,232.63212779999958,235.1341852000005,None,0,,,,,,,elpida_22_10_23,office_hugin04,2023-10-22_17h52.40.670,Oddball_task,2022.2.5,59.96688628500389,
standard,soundFiles/250Hz_44100Hz_16bit_05sec.wav',None,1000,,,,,8,0,40,0,,,,,235.1514575000001,236.1229060000005,236.12168550000024,238.64218009999968,None,1,,,,,,,elpida_22_10_23,office_hugin04,2023-10-22_17h52.40.670,Oddball_task,2022.2.5,59.96688628500389,
standard,soundFiles/250Hz_44100Hz_16bit_05sec.wav',None,1000,,,,,8,1,41,1,,,,,238.69482400000015,239.6219447000003,239.62153779999971,242.12329630000022,None,1,,,,,,,elpida_22_10_23,office_hugin04,2023-10-22_17h52.40.670,Oddball_task,2022.2.5,59.96688628500389,
target,soundFiles/1200Hz_-3dBFS_3s_44.1kHz.wav',t,2000,,,,,8,2,42,4,,,,,242.14000140000098,243.12455560000126,243.12446360000104,245.62656919999972,None,0,,,,,,,elpida_22_10_23,office_hugin04,2023-10-22_17h52.40.670,Oddball_task,2022.2.5,59.96688628500389,
standard,soundFiles/250Hz_44100Hz_16bit_05sec.wav',None,1000,,,,,8,3,43,3,,,,,245.64323690000128,246.62703340000007,246.62718669999958,249.12933479999992,None,1,,,,,,,elpida_22_10_23,office_hugin04,2023-10-22_17h52.40.670,Oddball_task,2022.2.5,59.96688628500389,
standard,soundFiles/250Hz_44100Hz_16bit_05sec.wav',None,1000,,,,,8,4,44,2,,,,,249.14600390000123,250.12153880000005,250.1187017000011,252.63316230000055,None,1,,,,,,,elpida_22_10_23,office_hugin04,2023-10-22_17h52.40.670,Oddball_task,2022.2.5,59.96688628500389,
standard,soundFiles/250Hz_44100Hz_16bit_05sec.wav',None,1000,,,,,9,0,45,1,,,,,252.64889349999976,253.63379970000096,253.63308570000117,,None,1,,,,,,,elpida_22_10_23,office_hugin04,2023-10-22_17h52.40.670,Oddball_task,2022.2.5,59.96688628500389,
standard,soundFiles/250Hz_44100Hz_16bit_05sec.wav',None,1000,,,,,9,1,46,0,,,,,256.13595110000097,257.1191636000003,257.1192798000011,259.6211132999997,None,1,,,,,,,elpida_22_10_23,office_hugin04,2023-10-22_17h52.40.670,Oddball_task,2022.2.5,59.96688628500389,
target,soundFiles/1200Hz_-3dBFS_3s_44.1kHz.wav',t,2000,,,,,9,2,47,4,,,,,259.637558800001,260.6228318000012,260.62276440000096,263.12451000000146,None,0,,,,,,,elpida_22_10_23,office_hugin04,2023-10-22_17h52.40.670,Oddball_task,2022.2.5,59.96688628500389,
standard,soundFiles/250Hz_44100Hz_16bit_05sec.wav',None,1000,,,,,9,3,48,3,,,,,263.1411200000002,264.12536010000076,264.12512849999985,266.6270851999998,None,1,,,,,,,elpida_22_10_23,office_hugin04,2023-10-22_17h52.40.670,Oddball_task,2022.2.5,59.96688628500389,
standard,soundFiles/250Hz_44100Hz_16bit_05sec.wav',None,1000,,,,,9,4,49,2,,,,,266.64586750000126,267.6280979000003,267.62809630000083,270.1302274000009,None,1,,,,,,,elpida_22_10_23,office_hugin04,2023-10-22_17h52.40.670,Oddball_task,2022.2.5,59.96688628500389,
standard,soundFiles/250Hz_44100Hz_16bit_05sec.wav',None,1000,,,,,10,0,50,2,,,,,270.14699480000127,271.13142549999975,271.1311192000012,273.6342005000006,None,1,,,,,,,elpida_22_10_23,office_hugin04,2023-10-22_17h52.40.670,Oddball_task,2022.2.5,59.96688628500389,
standard,soundFiles/250Hz_44100Hz_16bit_05sec.wav',None,1000,,,,,10,1,51,3,,,,,273.6504702000002,274.61815560000105,274.62001039999996,277.12038680000114,None,1,,,,,,,elpida_22_10_23,office_hugin04,2023-10-22_17h52.40.670,Oddball_task,2022.2.5,59.96688628500389,
target,soundFiles/1200Hz_-3dBFS_3s_44.1kHz.wav',t,2000,,,,,10,2,52,4,,,,,277.13629969999965,278.12114140000085,278.1204346000013,280.6232144000005,None,0,,,,,,,elpida_22_10_23,office_hugin04,2023-10-22_17h52.40.670,Oddball_task,2022.2.5,59.96688628500389,
standard,soundFiles/250Hz_44100Hz_16bit_05sec.wav',None,1000,,,,,10,3,53,1,,,,,280.6402044000006,281.62372140000116,281.6232646999997,284.12559930000134,None,1,,,,,,,elpida_22_10_23,office_hugin04,2023-10-22_17h52.40.670,Oddball_task,2022.2.5,59.96688628500389,
standard,soundFiles/250Hz_44100Hz_16bit_05sec.wav',None,1000,,,,,10,4,54,0,,,,,284.1422347000007,285.1270689000012,285.12622870000087,287.63034460000017,None,1,,,,,,,elpida_22_10_23,office_hugin04,2023-10-22_17h52.40.670,Oddball_task,2022.2.5,59.96688628500389,
target,soundFiles/1200Hz_-3dBFS_3s_44.1kHz.wav',t,2000,,,,,11,0,55,4,,,,,287.6452913000012,288.6314947999999,288.6292443000002,291.13149780000094,None,0,,,,,,,elpida_22_10_23,office_hugin04,2023-10-22_17h52.40.670,Oddball_task,2022.2.5,59.96688628500389,
standard,soundFiles/250Hz_44100Hz_16bit_05sec.wav',None,1000,,,,,11,1,56,0,,,,,291.14850730000035,292.1323078000005,292.1322269000011,,None,1,,,,,,,elpida_22_10_23,office_hugin04,2023-10-22_17h52.40.670,Oddball_task,2022.2.5,59.96688628500389,
standard,soundFiles/250Hz_44100Hz_16bit_05sec.wav',None,1000,,,,,11,2,57,3,,,,,294.6347412000014,295.6190103000008,295.6188000000002,298.1199195999998,None,1,,,,,,,elpida_22_10_23,office_hugin04,2023-10-22_17h52.40.670,Oddball_task,2022.2.5,59.96688628500389,
standard,soundFiles/250Hz_44100Hz_16bit_05sec.wav',None,1000,,,,,11,3,58,1,,,,,298.1367730000002,299.12174530000084,299.12131620000036,301.6238549000009,None,1,,,,,,,elpida_22_10_23,office_hugin04,2023-10-22_17h52.40.670,Oddball_task,2022.2.5,59.96688628500389,
standard,soundFiles/250Hz_44100Hz_16bit_05sec.wav',None,1000,,,,,11,4,59,2,,,,,301.64010430000053,302.6255366000005,302.6255529000009,305.1270706000014,None,1,,303.62519840000095,,,,,elpida_22_10_23,office_hugin04,2023-10-22_17h52.40.670,Oddball_task,2022.2.5,59.96688628500389,
target,soundFiles/1200Hz_-3dBFS_3s_44.1kHz.wav',t,2000,,,,,12,0,60,4,,,,,305.14390939999976,306.12705070000084,306.1269573999998,308.63146060000145,None,0,,,,,,,elpida_22_10_23,office_hugin04,2023-10-22_17h52.40.670,Oddball_task,2022.2.5,59.96688628500389,
standard,soundFiles/250Hz_44100Hz_16bit_05sec.wav',None,1000,,,,,12,1,61,1,,,,,308.64590280000084,309.6318506000007,309.6307624000001,312.13275000000067,None,1,,310.63136420000046,,,,,elpida_22_10_23,office_hugin04,2023-10-22_17h52.40.670,Oddball_task,2022.2.5,59.96688628500389,
standard,soundFiles/250Hz_44100Hz_16bit_05sec.wav',None,1000,,,,,12,2,62,0,,,,,312.1486299999997,313.1334852,313.1328856,,None,1,,,,,,,elpida_22_10_23,office_hugin04,2023-10-22_17h52.40.670,Oddball_task,2022.2.5,59.96688628500389,
standard,soundFiles/250Hz_44100Hz_16bit_05sec.wav',None,1000,,,,,12,3,63,3,,,,,315.635635300001,316.6203174000002,316.6200666000004,319.12182980000034,None,1,,,,,,,elpida_22_10_23,office_hugin04,2023-10-22_17h52.40.670,Oddball_task,2022.2.5,59.96688628500389,
standard,soundFiles/250Hz_44100Hz_16bit_05sec.wav',None,1000,,,,,12,4,64,2,,,,,319.1393841000008,320.1228200000005,320.122097200001,322.6239991000002,None,1,,,,,,,elpida_22_10_23,office_hugin04,2023-10-22_17h52.40.670,Oddball_task,2022.2.5,59.96688628500389,
target,soundFiles/1200Hz_-3dBFS_3s_44.1kHz.wav',t,2000,,,,,13,0,65,4,,,,,322.6407087000007,323.66361359999974,323.64799889999995,,None,0,,,,,,,elpida_22_10_23,office_hugin04,2023-10-22_17h52.40.670,Oddball_task,2022.2.5,59.96688628500389,
standard,soundFiles/250Hz_44100Hz_16bit_05sec.wav',None,1000,,,,,13,1,66,3,,,,,326.1443068999997,327.12894210000013,327.13038570000026,329.6311146000007,None,1,,,,,,,elpida_22_10_23,office_hugin04,2023-10-22_17h52.40.670,Oddball_task,2022.2.5,59.96688628500389,
standard,soundFiles/250Hz_44100Hz_16bit_05sec.wav',None,1000,,,,,13,2,67,2,,,,,329.64771780000046,330.6311216000013,330.6321201999999,333.1332734000007,None,1,,331.6335350999998,,,,,elpida_22_10_23,office_hugin04,2023-10-22_17h52.40.670,Oddball_task,2022.2.5,59.96688628500389,
standard,soundFiles/250Hz_44100Hz_16bit_05sec.wav',None,1000,,,,,13,3,68,1,,,,,333.149942,334.1183520000013,334.11851879999995,336.61944829999993,None,1,,,,,,,elpida_22_10_23,office_hugin04,2023-10-22_17h52.40.670,Oddball_task,2022.2.5,59.96688628500389,
standard,soundFiles/250Hz_44100Hz_16bit_05sec.wav',None,1000,,,,,13,4,69,0,,,,,336.6361699000008,337.6201817000001,337.6205077000013,340.12389090000033,None,1,,,,,,,elpida_22_10_23,office_hugin04,2023-10-22_17h52.40.670,Oddball_task,2022.2.5,59.96688628500389,
target,soundFiles/1200Hz_-3dBFS_3s_44.1kHz.wav',t,2000,,,,,14,0,70,4,,,,,340.13939910000045,341.1237130999998,341.1231244999999,343.62559500000134,None,0,,,,,,,elpida_22_10_23,office_hugin04,2023-10-22_17h52.40.670,Oddball_task,2022.2.5,59.96688628500389,
standard,soundFiles/250Hz_44100Hz_16bit_05sec.wav',None,1000,,,,,14,1,71,0,,,,,343.6421179000008,344.6263036,344.6264592999996,347.1289949000002,None,1,,345.6267974000002,,,,,elpida_22_10_23,office_hugin04,2023-10-22_17h52.40.670,Oddball_task,2022.2.5,59.96688628500389,
standard,soundFiles/250Hz_44100Hz_16bit_05sec.wav',None,1000,,,,,14,2,72,3,,,,,347.14772000000085,348.1293166000014,348.1294049999997,350.6317460999999,None,1,,,,,,,elpida_22_10_23,office_hugin04,2023-10-22_17h52.40.670,Oddball_task,2022.2.5,59.96688628500389,
standard,soundFiles/250Hz_44100Hz_16bit_05sec.wav',None,1000,,,,,14,3,73,1,,,,,350.6479532000012,351.63238079999974,351.6326284000006,354.13541350000014,None,1,,352.6326355000001,,,,,elpida_22_10_23,office_hugin04,2023-10-22_17h52.40.670,Oddball_task,2022.2.5,59.96688628500389,
standard,soundFiles/250Hz_44100Hz_16bit_05sec.wav',None,1000,,,,,14,4,74,2,,,,,354.1524866,355.1176417000006,355.1181491999996,357.62015489999976,None,1,,,,,,,elpida_22_10_23,office_hugin04,2023-10-22_17h52.40.670,Oddball_task,2022.2.5,59.96688628500389,
standard,soundFiles/250Hz_44100Hz_16bit_05sec.wav',None,1000,,,,,15,0,75,0,,,,,357.63727480000125,358.6215006000002,358.6207933000005,361.12339190000057,None,1,,,,,,,elpida_22_10_23,office_hugin04,2023-10-22_17h52.40.670,Oddball_task,2022.2.5,59.96688628500389,
target,soundFiles/1200Hz_-3dBFS_3s_44.1kHz.wav',t,2000,,,,,15,1,76,4,,,,,361.13954600000034,362.1238936999998,362.12362759999996,364.62579209999967,None,0,,,,,,,elpida_22_10_23,office_hugin04,2023-10-22_17h52.40.670,Oddball_task,2022.2.5,59.96688628500389,
standard,soundFiles/250Hz_44100Hz_16bit_05sec.wav',None,1000,,,,,15,2,77,1,,,,,364.64260710000053,365.6276840999999,365.62764419999985,368.1290313999998,None,1,,,,,,,elpida_22_10_23,office_hugin04,2023-10-22_17h52.40.670,Oddball_task,2022.2.5,59.96688628500389,
standard,soundFiles/250Hz_44100Hz_16bit_05sec.wav',None,1000,,,,,15,3,78,3,,,,,368.1455457000011,369.13815480000085,369.1194658000004,,None,1,,,,,,,elpida_22_10_23,office_hugin04,2023-10-22_17h52.40.670,Oddball_task,2022.2.5,59.96688628500389,
standard,soundFiles/250Hz_44100Hz_16bit_05sec.wav',None,1000,,,,,15,4,79,2,,,,,371.6485233000003,372.6341517000001,372.633628900001,,None,1,,,,,,,elpida_22_10_23,office_hugin04,2023-10-22_17h52.40.670,Oddball_task,2022.2.5,59.96688628500389,
standard,soundFiles/250Hz_44100Hz_16bit_05sec.wav',None,1000,,,,,16,0,80,3,,,,,375.1353713999997,376.14118810000036,376.1266668999997,,None,1,,,,,,,elpida_22_10_23,office_hugin04,2023-10-22_17h52.40.670,Oddball_task,2022.2.5,59.96688628500389,
standard,soundFiles/250Hz_44100Hz_16bit_05sec.wav',None,1000,,,,,16,1,81,1,,,,,378.6388071000001,379.6221175999999,379.6218374,382.12487070000134,None,1,,,,,,,elpida_22_10_23,office_hugin04,2023-10-22_17h52.40.670,Oddball_task,2022.2.5,59.96688628500389,
target,soundFiles/1200Hz_-3dBFS_3s_44.1kHz.wav',t,2000,,,,,16,2,82,4,,,,,382.1411753000011,383.12470270000085,383.12499240000034,385.62716569999975,None,0,,,,,,,elpida_22_10_23,office_hugin04,2023-10-22_17h52.40.670,Oddball_task,2022.2.5,59.96688628500389,
standard,soundFiles/250Hz_44100Hz_16bit_05sec.wav',None,1000,,,,,16,3,83,2,,,,,385.6437657000006,386.627779800001,386.6280035,389.13060570000016,None,1,,,,,,,elpida_22_10_23,office_hugin04,2023-10-22_17h52.40.670,Oddball_task,2022.2.5,59.96688628500389,
standard,soundFiles/250Hz_44100Hz_16bit_05sec.wav',None,1000,,,,,16,4,84,0,,,,,389.14786040000035,390.13040750000073,390.1305162000008,392.63312570000016,None,1,,,,,,,elpida_22_10_23,office_hugin04,2023-10-22_17h52.40.670,Oddball_task,2022.2.5,59.96688628500389,
standard,soundFiles/250Hz_44100Hz_16bit_05sec.wav',None,1000,,,,,17,0,85,2,,,,,392.64974020000045,393.63436320000073,393.63408770000024,,None,1,,,,,,,elpida_22_10_23,office_hugin04,2023-10-22_17h52.40.670,Oddball_task,2022.2.5,59.96688628500389,
target,soundFiles/1200Hz_-3dBFS_3s_44.1kHz.wav',t,2000,,,,,17,1,86,4,,,,,396.136230600001,397.1200907000002,397.12069280000105,399.62175240000033,None,0,,,,,,,elpida_22_10_23,office_hugin04,2023-10-22_17h52.40.670,Oddball_task,2022.2.5,59.96688628500389,
standard,soundFiles/250Hz_44100Hz_16bit_05sec.wav',None,1000,,,,,17,2,87,1,,,,,399.6385483000013,400.6252010999997,400.6247067000004,403.1256852000006,None,1,,,,,,,elpida_22_10_23,office_hugin04,2023-10-22_17h52.40.670,Oddball_task,2022.2.5,59.96688628500389,
standard,soundFiles/250Hz_44100Hz_16bit_05sec.wav',None,1000,,,,,17,3,88,3,,,,,403.1422343000013,404.1262402000011,404.1258120000002,406.62931110000136,None,1,,,,,,,elpida_22_10_23,office_hugin04,2023-10-22_17h52.40.670,Oddball_task,2022.2.5,59.96688628500389,
standard,soundFiles/250Hz_44100Hz_16bit_05sec.wav',None,1000,,,,,17,4,89,0,,,,,406.6448001000008,407.6288034999998,407.6299981000011,410.13099930000135,None,1,,,,,,,elpida_22_10_23,office_hugin04,2023-10-22_17h52.40.670,Oddball_task,2022.2.5,59.96688628500389,
target,soundFiles/1200Hz_-3dBFS_3s_44.1kHz.wav',t,2000,,,,,18,0,90,4,,,,,410.1498683000009,411.13238150000143,411.1329130000013,413.6340263000002,None,0,,,,,,,elpida_22_10_23,office_hugin04,2023-10-22_17h52.40.670,Oddball_task,2022.2.5,59.96688628500389,
standard,soundFiles/250Hz_44100Hz_16bit_05sec.wav',None,1000,,,,,18,1,91,0,,,,,413.65071590000116,414.61773990000074,414.6177459999999,417.1201378000005,None,1,,,,,,,elpida_22_10_23,office_hugin04,2023-10-22_17h52.40.670,Oddball_task,2022.2.5,59.96688628500389,
standard,soundFiles/250Hz_44100Hz_16bit_05sec.wav',None,1000,,,,,18,2,92,3,,,,,417.1362535999997,418.1222585000014,418.1212050000013,420.6235385,None,1,,,,,,,elpida_22_10_23,office_hugin04,2023-10-22_17h52.40.670,Oddball_task,2022.2.5,59.96688628500389,
standard,soundFiles/250Hz_44100Hz_16bit_05sec.wav',None,1000,,,,,18,3,93,1,,,,,420.64002860000073,421.62477220000073,421.6244415000001,424.1261966000002,None,1,,,,,,,elpida_22_10_23,office_hugin04,2023-10-22_17h52.40.670,Oddball_task,2022.2.5,59.96688628500389,
standard,soundFiles/250Hz_44100Hz_16bit_05sec.wav',None,1000,,,,,18,4,94,2,,,,,424.14313740000034,425.1270413000002,425.1268254000006,427.62909469999977,None,1,,,,,,,elpida_22_10_23,office_hugin04,2023-10-22_17h52.40.670,Oddball_task,2022.2.5,59.96688628500389,
standard,soundFiles/250Hz_44100Hz_16bit_05sec.wav',None,1000,,,,,19,0,95,3,,,,,427.6454599000008,428.6301557000006,428.6302160000014,431.1325514,None,1,,,,,,,elpida_22_10_23,office_hugin04,2023-10-22_17h52.40.670,Oddball_task,2022.2.5,59.96688628500389,
target,soundFiles/1200Hz_-3dBFS_3s_44.1kHz.wav',t,2000,,,,,19,1,96,4,,,,,431.14910750000126,432.11991860000126,432.1211581999996,434.63500660000136,None,0,,,,,,,elpida_22_10_23,office_hugin04,2023-10-22_17h52.40.670,Oddball_task,2022.2.5,59.96688628500389,
standard,soundFiles/250Hz_44100Hz_16bit_05sec.wav',None,1000,,,,,19,2,97,0,,,,,434.6517881,435.6187996999997,435.61983320000036,438.1210908000012,None,1,,,,,,,elpida_22_10_23,office_hugin04,2023-10-22_17h52.40.670,Oddball_task,2022.2.5,59.96688628500389,
standard,soundFiles/250Hz_44100Hz_16bit_05sec.wav',None,1000,,,,,19,3,98,2,,,,,438.13894360000086,439.1230678000011,439.1213731000007,441.62456290000046,None,1,,,,,,,elpida_22_10_23,office_hugin04,2023-10-22_17h52.40.670,Oddball_task,2022.2.5,59.96688628500389,
standard,soundFiles/250Hz_44100Hz_16bit_05sec.wav',None,1000,,,,,19,4,99,1,,,,,441.64123910000126,442.6248168000002,442.62477880000006,445.1282839000014,None,1,,,,,,,elpida_22_10_23,office_hugin04,2023-10-22_17h52.40.670,Oddball_task,2022.2.5,59.96688628500389,
standard,soundFiles/250Hz_44100Hz_16bit_05sec.wav',None,1000,,,,,20,0,100,0,,,,,445.14397439999993,446.12732570000117,446.1277833000004,448.6312068999996,None,1,,,,,,,elpida_22_10_23,office_hugin04,2023-10-22_17h52.40.670,Oddball_task,2022.2.5,59.96688628500389,
standard,soundFiles/250Hz_44100Hz_16bit_05sec.wav',None,1000,,,,,20,1,101,3,,,,,448.6477556000009,449.63163330000134,449.6310243000007,452.1323409000015,None,1,,,,,,,elpida_22_10_23,office_hugin04,2023-10-22_17h52.40.670,Oddball_task,2022.2.5,59.96688628500389,
standard,soundFiles/250Hz_44100Hz_16bit_05sec.wav',None,1000,,,,,20,2,102,2,,,,,452.1492975000019,453.13410340000155,453.1335392000001,,None,1,,454.13911720000215,,,,,elpida_22_10_23,office_hugin04,2023-10-22_17h52.40.670,Oddball_task,2022.2.5,59.96688628500389,
target,soundFiles/1200Hz_-3dBFS_3s_44.1kHz.wav',t,2000,,,,,20,3,103,4,,,,,455.6353806999996,456.6198955000018,456.61992720000126,459.1224044999999,None,0,,,,,,,elpida_22_10_23,office_hugin04,2023-10-22_17h52.40.670,Oddball_task,2022.2.5,59.96688628500389,
standard,soundFiles/250Hz_44100Hz_16bit_05sec.wav',None,1000,,,,,20,4,104,1,,,,,459.1392458999999,460.1232457999995,460.12277639999957,462.6250447000002,None,1,,,,,,,elpida_22_10_23,office_hugin04,2023-10-22_17h52.40.670,Oddball_task,2022.2.5,59.96688628500389,
target,soundFiles/1200Hz_-3dBFS_3s_44.1kHz.wav',t,2000,,,,,21,0,105,4,,,,,462.6415373,463.6258813000004,463.62587669999994,466.12802249999913,None,0,,,,,,,elpida_22_10_23,office_hugin04,2023-10-22_17h52.40.670,Oddball_task,2022.2.5,59.96688628500389,
standard,soundFiles/250Hz_44100Hz_16bit_05sec.wav',None,1000,,,,,21,1,106,2,,,,,466.1445412000012,467.1289213,467.1299026000015,469.63103410000076,None,1,,,,,,,elpida_22_10_23,office_hugin04,2023-10-22_17h52.40.670,Oddball_task,2022.2.5,59.96688628500389,
standard,soundFiles/250Hz_44100Hz_16bit_05sec.wav',None,1000,,,,,21,2,107,1,,,,,469.64737950000017,470.63349220000055,470.63156589999926,473.1347121000017,None,1,,,,,,,elpida_22_10_23,office_hugin04,2023-10-22_17h52.40.670,Oddball_task,2022.2.5,59.96688628500389,
standard,soundFiles/250Hz_44100Hz_16bit_05sec.wav',None,1000,,,,,21,3,108,0,,,,,473.15098000000035,474.119426700001,474.11877040000036,476.6205290000016,None,1,,,,,,,elpida_22_10_23,office_hugin04,2023-10-22_17h52.40.670,Oddball_task,2022.2.5,59.96688628500389,
standard,soundFiles/250Hz_44100Hz_16bit_05sec.wav',None,1000,,,,,21,4,109,3,,,,,476.6376067000001,477.6208855999994,477.62046700000064,480.1237190000011,None,1,,,,,,,elpida_22_10_23,office_hugin04,2023-10-22_17h52.40.670,Oddball_task,2022.2.5,59.96688628500389,
standard,soundFiles/250Hz_44100Hz_16bit_05sec.wav',None,1000,,,,,22,0,110,3,,,,,480.1402552000018,481.1237028000014,481.12376900000163,483.6253760000018,None,1,,,,,,,elpida_22_10_23,office_hugin04,2023-10-22_17h52.40.670,Oddball_task,2022.2.5,59.96688628500389,
standard,soundFiles/250Hz_44100Hz_16bit_05sec.wav',None,1000,,,,,22,1,111,1,,,,,483.64272449999953,484.6270753000008,484.6272549999994,487.12891370000034,None,1,,,,,,,elpida_22_10_23,office_hugin04,2023-10-22_17h52.40.670,Oddball_task,2022.2.5,59.96688628500389,
standard,soundFiles/250Hz_44100Hz_16bit_05sec.wav',None,1000,,,,,22,2,112,0,,,,,487.1456758000004,488.13038939999933,488.1300713000019,490.6315259000021,None,1,,,,,,,elpida_22_10_23,office_hugin04,2023-10-22_17h52.40.670,Oddball_task,2022.2.5,59.96688628500389,
standard,soundFiles/250Hz_44100Hz_16bit_05sec.wav',None,1000,,,,,22,3,113,2,,,,,490.64828650000163,491.6341814999996,491.6343987,,None,1,,,,,,,elpida_22_10_23,office_hugin04,2023-10-22_17h52.40.670,Oddball_task,2022.2.5,59.96688628500389,
target,soundFiles/1200Hz_-3dBFS_3s_44.1kHz.wav',t,2000,,,,,22,4,114,4,,,,,494.1345463000016,495.11906830000044,495.11890109999877,497.62101690000236,None,0,,,,,,,elpida_22_10_23,office_hugin04,2023-10-22_17h52.40.670,Oddball_task,2022.2.5,59.96688628500389,
standard,soundFiles/250Hz_44100Hz_16bit_05sec.wav',None,1000,,,,,23,0,115,1,,,,,497.6377331999993,498.62248720000025,498.6215556999996,501.1236915999998,None,1,,,,,,,elpida_22_10_23,office_hugin04,2023-10-22_17h52.40.670,Oddball_task,2022.2.5,59.96688628500389,
target,soundFiles/1200Hz_-3dBFS_3s_44.1kHz.wav',t,2000,,,,,23,1,116,4,,,,,501.14143530000183,502.1246250000022,502.12514250000095,504.6276865999989,None,0,,,,,,,elpida_22_10_23,office_hugin04,2023-10-22_17h52.40.670,Oddball_task,2022.2.5,59.96688628500389,
standard,soundFiles/250Hz_44100Hz_16bit_05sec.wav',None,1000,,,,,23,2,117,0,,,,,504.6442446000019,505.62781930000165,505.62809280000147,508.1308157000003,None,1,,,,,,,elpida_22_10_23,office_hugin04,2023-10-22_17h52.40.670,Oddball_task,2022.2.5,59.96688628500389,
standard,soundFiles/250Hz_44100Hz_16bit_05sec.wav',None,1000,,,,,23,3,118,3,,,,,508.14729590000024,509.1311962999989,509.13099820000207,,None,1,,,,,,,elpida_22_10_23,office_hugin04,2023-10-22_17h52.40.670,Oddball_task,2022.2.5,59.96688628500389,
standard,soundFiles/250Hz_44100Hz_16bit_05sec.wav',None,1000,,,,,23,4,119,2,,,,,511.65413400000216,512.6336801000016,512.6333846000016,,None,1,,,,,,,elpida_22_10_23,office_hugin04,2023-10-22_17h52.40.670,Oddball_task,2022.2.5,59.96688628500389,
standard,soundFiles/250Hz_44100Hz_16bit_05sec.wav',None,1000,,,,,24,0,120,1,,,,,515.1354919999994,516.1196815000021,516.1197085999993,518.6220119000009,None,1,,,,,,,elpida_22_10_23,office_hugin04,2023-10-22_17h52.40.670,Oddball_task,2022.2.5,59.96688628500389,
target,soundFiles/1200Hz_-3dBFS_3s_44.1kHz.wav',t,2000,,,,,24,1,121,4,,,,,518.6386383000008,519.6250557000003,519.6239838000001,522.1272680999991,None,0,,,,,,,elpida_22_10_23,office_hugin04,2023-10-22_17h52.40.670,Oddball_task,2022.2.5,59.96688628500389,
standard,soundFiles/250Hz_44100Hz_16bit_05sec.wav',None,1000,,,,,24,2,122,0,,,,,522.1591571000008,523.1261265000012,523.1257637999988,525.6279218,None,1,,,,,,,elpida_22_10_23,office_hugin04,2023-10-22_17h52.40.670,Oddball_task,2022.2.5,59.96688628500389,
standard,soundFiles/250Hz_44100Hz_16bit_05sec.wav',None,1000,,,,,24,3,123,3,,,,,525.6444467000019,526.628776399999,526.6287335999987,529.1306638000005,None,1,,,,,,,elpida_22_10_23,office_hugin04,2023-10-22_17h52.40.670,Oddball_task,2022.2.5,59.96688628500389,
standard,soundFiles/250Hz_44100Hz_16bit_05sec.wav',None,1000,,,,,24,4,124,2,,,,,529.1474168000004,530.1323018000021,530.1325943000011,532.6352903999996,None,1,,,,,,,elpida_22_10_23,office_hugin04,2023-10-22_17h52.40.670,Oddball_task,2022.2.5,59.96688628500389,
standard,soundFiles/250Hz_44100Hz_16bit_05sec.wav',None,1000,,,,,25,0,125,0,,,,,532.6501857000021,533.6174224000006,533.6179656000022,536.1240239000017,None,1,,,,,,,elpida_22_10_23,office_hugin04,2023-10-22_17h52.40.670,Oddball_task,2022.2.5,59.96688628500389,
target,soundFiles/1200Hz_-3dBFS_3s_44.1kHz.wav',t,2000,,,,,25,1,126,4,,,,,536.1363346000016,537.1213640000005,537.1213859000018,539.6227068999997,None,0,,,,,,,elpida_22_10_23,office_hugin04,2023-10-22_17h52.40.670,Oddball_task,2022.2.5,59.96688628500389,
standard,soundFiles/250Hz_44100Hz_16bit_05sec.wav',None,1000,,,,,25,2,127,2,,,,,539.6396165999995,540.6243072000016,540.624154000001,543.1274503000004,None,1,,,,,,,elpida_22_10_23,office_hugin04,2023-10-22_17h52.40.670,Oddball_task,2022.2.5,59.96688628500389,
standard,soundFiles/250Hz_44100Hz_16bit_05sec.wav',None,1000,,,,,25,3,128,3,,,,,543.1435073000011,544.126607799999,544.1268237000004,546.6291734999995,None,1,,,,,,,elpida_22_10_23,office_hugin04,2023-10-22_17h52.40.670,Oddball_task,2022.2.5,59.96688628500389,
standard,soundFiles/250Hz_44100Hz_16bit_05sec.wav',None,1000,,,,,25,4,129,1,,,,,546.645751099999,547.6322315000016,547.6313857999994,,None,1,,,,,,,elpida_22_10_23,office_hugin04,2023-10-22_17h52.40.670,Oddball_task,2022.2.5,59.96688628500389,
standard,soundFiles/250Hz_44100Hz_16bit_05sec.wav',None,1000,,,,,26,0,130,0,,,,,550.1863298000007,551.1324525,551.1332442999992,553.6340734000023,None,1,,,,,,,elpida_22_10_23,office_hugin04,2023-10-22_17h52.40.670,Oddball_task,2022.2.5,59.96688628500389,
standard,soundFiles/250Hz_44100Hz_16bit_05sec.wav',None,1000,,,,,26,1,131,3,,,,,553.6509720000013,554.6200690999995,554.6207992000018,557.1206537999988,None,1,,,,,,,elpida_22_10_23,office_hugin04,2023-10-22_17h52.40.670,Oddball_task,2022.2.5,59.96688628500389,
standard,soundFiles/250Hz_44100Hz_16bit_05sec.wav',None,1000,,,,,26,2,132,1,,,,,557.1377894000016,558.1217383999992,558.1215988000004,560.6237509000002,None,1,,,,,,,elpida_22_10_23,office_hugin04,2023-10-22_17h52.40.670,Oddball_task,2022.2.5,59.96688628500389,
standard,soundFiles/250Hz_44100Hz_16bit_05sec.wav',None,1000,,,,,26,3,133,2,,,,,560.6403703000015,561.6243890000023,561.6246004999994,,None,1,,,,,,,elpida_22_10_23,office_hugin04,2023-10-22_17h52.40.670,Oddball_task,2022.2.5,59.96688628500389,
target,soundFiles/1200Hz_-3dBFS_3s_44.1kHz.wav',t,2000,,,,,26,4,134,4,,,,,564.1819651999995,565.127628100001,565.1274618999996,567.6298413000022,None,0,,,,,,,elpida_22_10_23,office_hugin04,2023-10-22_17h52.40.670,Oddball_task,2022.2.5,59.96688628500389,
target,soundFiles/1200Hz_-3dBFS_3s_44.1kHz.wav',t,2000,,,,,27,0,135,4,,,,,567.6460834000009,568.6297321000002,568.6305264000002,571.1327605999995,None,0,,,,,,,elpida_22_10_23,office_hugin04,2023-10-22_17h52.40.670,Oddball_task,2022.2.5,59.96688628500389,
standard,soundFiles/250Hz_44100Hz_16bit_05sec.wav',None,1000,,,,,27,1,136,1,,,,,571.1500663999996,572.1333992999989,572.1333780999994,574.6360714999992,None,1,,,,,,,elpida_22_10_23,office_hugin04,2023-10-22_17h52.40.670,Oddball_task,2022.2.5,59.96688628500389,
standard,soundFiles/250Hz_44100Hz_16bit_05sec.wav',None,1000,,,,,27,2,137,2,,,,,574.6524805999998,575.6195864999991,575.6198344000004,578.1216081000002,None,1,,,,,,,elpida_22_10_23,office_hugin04,2023-10-22_17h52.40.670,Oddball_task,2022.2.5,59.96688628500389,
standard,soundFiles/250Hz_44100Hz_16bit_05sec.wav',None,1000,,,,,27,3,138,0,,,,,578.1387072000016,579.1224649000014,579.1224479000011,581.6244053999999,None,1,,,,,,,elpida_22_10_23,office_hugin04,2023-10-22_17h52.40.670,Oddball_task,2022.2.5,59.96688628500389,
standard,soundFiles/250Hz_44100Hz_16bit_05sec.wav',None,1000,,,,,27,4,139,3,,,,,581.641452599999,582.6256641000018,582.6258032000005,585.1276576,None,1,,,,,,,elpida_22_10_23,office_hugin04,2023-10-22_17h52.40.670,Oddball_task,2022.2.5,59.96688628500389,
standard,soundFiles/250Hz_44100Hz_16bit_05sec.wav',None,1000,,,,,28,0,140,2,,,,,585.1444157000024,586.1289263999988,586.1289318999989,588.6312242000004,None,1,,,,,,,elpida_22_10_23,office_hugin04,2023-10-22_17h52.40.670,Oddball_task,2022.2.5,59.96688628500389,
target,soundFiles/1200Hz_-3dBFS_3s_44.1kHz.wav',t,2000,,,,,28,1,141,4,,,,,588.6474259000006,589.6315512000019,589.631566600001,,None,0,,,,,,,elpida_22_10_23,office_hugin04,2023-10-22_17h52.40.670,Oddball_task,2022.2.5,59.96688628500389,
standard,soundFiles/250Hz_44100Hz_16bit_05sec.wav',None,1000,,,,,28,2,142,0,,,,,592.1891526999989,593.1341688000011,593.1341633000011,,None,1,,,,,,,elpida_22_10_23,office_hugin04,2023-10-22_17h52.40.670,Oddball_task,2022.2.5,59.96688628500389,
standard,soundFiles/250Hz_44100Hz_16bit_05sec.wav',None,1000,,,,,28,3,143,1,,,,,595.6374771999999,596.6467094000018,596.625700200002,,None,1,,,,,,,elpida_22_10_23,office_hugin04,2023-10-22_17h52.40.670,Oddball_task,2022.2.5,59.96688628500389,
standard,soundFiles/250Hz_44100Hz_16bit_05sec.wav',None,1000,,,,,28,4,144,3,,,,,599.1775457999993,600.1235178000006,600.1237533000021,602.6255435000003,None,1,,,,,,,elpida_22_10_23,office_hugin04,2023-10-22_17h52.40.670,Oddball_task,2022.2.5,59.96688628500389,
standard,soundFiles/250Hz_44100Hz_16bit_05sec.wav',None,1000,,,,,29,0,145,0,,,,,602.6423603999992,603.6493415999994,603.632927300001,,None,1,,,,,,,elpida_22_10_23,office_hugin04,2023-10-22_17h52.40.670,Oddball_task,2022.2.5,59.96688628500389,
standard,soundFiles/250Hz_44100Hz_16bit_05sec.wav',None,1000,,,,,29,1,146,2,,,,,606.1824217000012,607.1290314000016,607.1289266999993,609.6317574000004,None,1,,,,,,,elpida_22_10_23,office_hugin04,2023-10-22_17h52.40.670,Oddball_task,2022.2.5,59.96688628500389,
target,soundFiles/1200Hz_-3dBFS_3s_44.1kHz.wav',t,2000,,,,,29,2,147,4,,,,,609.6485402999988,610.6326150000004,610.631898399999,613.1351728999998,None,0,,,,,,,elpida_22_10_23,office_hugin04,2023-10-22_17h52.40.670,Oddball_task,2022.2.5,59.96688628500389,
standard,soundFiles/250Hz_44100Hz_16bit_05sec.wav',None,1000,,,,,29,3,148,3,,,,,613.1516132000015,614.1182059000002,614.1183361000003,616.6206919000015,None,1,,,,,,,elpida_22_10_23,office_hugin04,2023-10-22_17h52.40.670,Oddball_task,2022.2.5,59.96688628500389,
standard,soundFiles/250Hz_44100Hz_16bit_05sec.wav',None,1000,,,,,29,4,149,1,,,,,616.6372408000007,617.6214784999993,617.6218789000013,620.124033099999,None,1,,,,,,,elpida_22_10_23,office_hugin04,2023-10-22_17h52.40.670,Oddball_task,2022.2.5,59.96688628500389,
standard,soundFiles/250Hz_44100Hz_16bit_05sec.wav',None,1000,,,,,30,0,150,0,,,,,620.1403821000004,621.1241682000018,621.1244576999998,623.6281892999996,None,1,,,,,,,elpida_22_10_23,office_hugin04,2023-10-22_17h52.40.670,Oddball_task,2022.2.5,59.96688628500389,
standard,soundFiles/250Hz_44100Hz_16bit_05sec.wav',None,1000,,,,,30,1,151,3,,,,,623.6444978000018,624.628550200001,624.6282702999997,627.1298119000003,None,1,,,,,,,elpida_22_10_23,office_hugin04,2023-10-22_17h52.40.670,Oddball_task,2022.2.5,59.96688628500389,
standard,soundFiles/250Hz_44100Hz_16bit_05sec.wav',None,1000,,,,,30,2,152,2,,,,,627.146688400002,628.1305680000023,628.1304510000009,630.6336379000004,None,1,,,,,,,elpida_22_10_23,office_hugin04,2023-10-22_17h52.40.670,Oddball_task,2022.2.5,59.96688628500389,
target,soundFiles/1200Hz_-3dBFS_3s_44.1kHz.wav',t,2000,,,,,30,3,153,4,,,,,630.6495441999996,631.620080900002,631.6186286000011,634.1193780000012,None,0,,,,,,,elpida_22_10_23,office_hugin04,2023-10-22_17h52.40.670,Oddball_task,2022.2.5,59.96688628500389,
standard,soundFiles/250Hz_44100Hz_16bit_05sec.wav',None,1000,,,,,30,4,154,1,,,,,634.1360136999992,635.1193294000022,635.1192604999997,637.6237143000017,None,1,,,,,,,elpida_22_10_23,office_hugin04,2023-10-22_17h52.40.670,Oddball_task,2022.2.5,59.96688628500389,
standard,soundFiles/250Hz_44100Hz_16bit_05sec.wav',None,1000,,,,,31,0,155,2,,,,,637.6388676000006,638.6226445000011,638.6224340000008,641.1256410000005,None,1,,,,,,,elpida_22_10_23,office_hugin04,2023-10-22_17h52.40.670,Oddball_task,2022.2.5,59.96688628500389,
standard,soundFiles/250Hz_44100Hz_16bit_05sec.wav',None,1000,,,,,31,1,156,0,,,,,641.1417458000014,642.1253534000007,642.1253025000005,644.6282091000012,None,1,,,,,,,elpida_22_10_23,office_hugin04,2023-10-22_17h52.40.670,Oddball_task,2022.2.5,59.96688628500389,
standard,soundFiles/250Hz_44100Hz_16bit_05sec.wav',None,1000,,,,,31,2,157,1,,,,,644.6447072999999,645.6284286999999,645.6283977000021,648.1307695000014,None,1,,,,,,,elpida_22_10_23,office_hugin04,2023-10-22_17h52.40.670,Oddball_task,2022.2.5,59.96688628500389,
target,soundFiles/1200Hz_-3dBFS_3s_44.1kHz.wav',t,2000,,,,,31,3,158,4,,,,,648.1473382000022,649.1321700999997,649.1319753999996,651.633266400002,None,0,,,,,,,elpida_22_10_23,office_hugin04,2023-10-22_17h52.40.670,Oddball_task,2022.2.5,59.96688628500389,
standard,soundFiles/250Hz_44100Hz_16bit_05sec.wav',None,1000,,,,,31,4,159,3,,,,,651.649829,652.6337289999992,652.6337762000003,,None,1,,,,,,,elpida_22_10_23,office_hugin04,2023-10-22_17h52.40.670,Oddball_task,2022.2.5,59.96688628500389,
standard,soundFiles/250Hz_44100Hz_16bit_05sec.wav',None,1000,,,,,32,0,160,0,,,,,655.1365434000018,656.1202893999998,656.1197982000012,658.6229938000015,None,1,,,,,,,elpida_22_10_23,office_hugin04,2023-10-22_17h52.40.670,Oddball_task,2022.2.5,59.96688628500389,
standard,soundFiles/250Hz_44100Hz_16bit_05sec.wav',None,1000,,,,,32,1,161,2,,,,,658.6403296000008,659.6469486000005,659.6279592999999,,None,1,,,,,,,elpida_22_10_23,office_hugin04,2023-10-22_17h52.40.670,Oddball_task,2022.2.5,59.96688628500389,
target,soundFiles/1200Hz_-3dBFS_3s_44.1kHz.wav',t,2000,,,,,32,2,162,4,,,,,662.1619613999992,663.1267251000008,663.1266625999997,665.6286196000019,None,0,,,,,,,elpida_22_10_23,office_hugin04,2023-10-22_17h52.40.670,Oddball_task,2022.2.5,59.96688628500389,
standard,soundFiles/250Hz_44100Hz_16bit_05sec.wav',None,1000,,,,,32,3,163,1,,,,,665.644971300002,666.6301777999997,666.6291003000006,669.1309951999992,None,1,,,,,,,elpida_22_10_23,office_hugin04,2023-10-22_17h52.40.670,Oddball_task,2022.2.5,59.96688628500389,
standard,soundFiles/250Hz_44100Hz_16bit_05sec.wav',None,1000,,,,,32,4,164,3,,,,,669.1477341000009,670.1334143000004,670.1321879999996,672.6354736000012,None,1,,,,,,,elpida_22_10_23,office_hugin04,2023-10-22_17h52.40.670,Oddball_task,2022.2.5,59.96688628500389,
standard,soundFiles/250Hz_44100Hz_16bit_05sec.wav',None,1000,,,,,33,0,165,1,,,,,672.6515791000002,673.6191914999999,673.6201528999991,676.1212742000007,None,1,,,,,,,elpida_22_10_23,office_hugin04,2023-10-22_17h52.40.670,Oddball_task,2022.2.5,59.96688628500389,
,,,,,,,,,,,,,,,,676.1376989,677.1212988999996,677.1217179000014,,,,,,,,,,,,,,,,
