trial,file,corrAns,tone,trials.thisRepN,trials.thisTrialN,trials.thisN,trials.thisIndex,trials_2.thisRepN,trials_2.thisTrialN,trials_2.thisN,trials_2.thisIndex,instructions.started,key_resp_1.started,key_resp_1.keys,key_resp_1.rt,fixation.started,response.started,sound_1.started,response.stopped,response.keys,response.corr,feedback_text.started,response.rt,sound_1.stopped,instructions_2.started,key_resp_2.started,key_resp_2.keys,key_resp_2.rt,fixation.stopped,thank_you.started,exit_exp.started,thank_you.stopped,exit_exp.keys,exit_exp.rt,participant,session,date,expName,psychopyVersion,frameRate,
,,,,,,,,,,,,63.31449469999643,63.31449469999643,space,69.97675529998378,,,,,,,,,,,,,,,,,,,,elpida_20_10_23,home_hugin04,2023-10-20_13h06.03.521,Oddball_task,2022.2.5,59.92739197015648,
standard,soundFiles/250Hz_44100Hz_16bit_05sec.wav',None,1000,0,0,0,1,,,,,,,,,133.32708429999184,134.29448969999794,134.2955127599853,136.79620989999967,None,1,136.81216619999032,,,,,,,,,,,,,elpida_20_10_23,home_hugin04,2023-10-20_13h06.03.521,Oddball_task,2022.2.5,59.92739197015648,
target,soundFiles/1200Hz_-3dBFS_3s_44.1kHz.wav',t,2000,0,1,1,4,,,,,,,,,137.81294539998635,138.7968625999929,138.7966542600043,141.29768930000137,t,1,141.31449029999203,0.9921929000120144,,,,,,,,,,,,elpida_20_10_23,home_hugin04,2023-10-20_13h06.03.521,Oddball_task,2022.2.5,59.92739197015648,
standard,soundFiles/250Hz_44100Hz_16bit_05sec.wav',None,1000,0,2,2,3,,,,,,,,,142.31466279999586,143.29829400000744,143.29819225998654,145.79956819998915,None,1,145.81626359999063,,144.30082259999472,,,,,,,,,,,elpida_20_10_23,home_hugin04,2023-10-20_13h06.03.521,Oddball_task,2022.2.5,59.92739197015648,
standard,soundFiles/250Hz_44100Hz_16bit_05sec.wav',None,1000,0,3,3,2,,,,,,,,,146.8178183999844,147.80049289998715,147.80106025999703,150.3015289999894,None,1,150.31833770000958,,,,,,,,,,,,,elpida_20_10_23,home_hugin04,2023-10-20_13h06.03.521,Oddball_task,2022.2.5,59.92739197015648,
standard,soundFiles/250Hz_44100Hz_16bit_05sec.wav',None,1000,0,4,4,0,,,,,,,,,151.3191000999941,152.30221160000656,152.30230046001088,154.8037578999938,None,1,154.82024090000778,,,,,,,,,,,,,elpida_20_10_23,home_hugin04,2023-10-20_13h06.03.521,Oddball_task,2022.2.5,59.92739197015648,
standard,soundFiles/250Hz_44100Hz_16bit_05sec.wav',None,1000,1,0,5,1,,,,,,,,,155.82045749999816,156.80414019999444,156.80425336000917,159.3053637999983,None,1,159.3217192000011,,,,,,,,,,,,,elpida_20_10_23,home_hugin04,2023-10-20_13h06.03.521,Oddball_task,2022.2.5,59.92739197015648,
standard,soundFiles/250Hz_44100Hz_16bit_05sec.wav',None,1000,1,1,6,2,,,,,,,,,160.32275709998794,161.305766400008,161.305992160007,163.80720789998304,None,1,163.823502299987,,,,,,,,,,,,,elpida_20_10_23,home_hugin04,2023-10-20_13h06.03.521,Oddball_task,2022.2.5,59.92739197015648,
target,soundFiles/1200Hz_-3dBFS_3s_44.1kHz.wav',t,2000,1,2,7,4,,,,,,,,,164.8246586000023,165.8081569999922,165.8085690599837,168.3087520999834,t,1,168.32606950000627,0.7963658000226133,,,,,,,,,,,,elpida_20_10_23,home_hugin04,2023-10-20_13h06.03.521,Oddball_task,2022.2.5,59.92739197015648,
standard,soundFiles/250Hz_44100Hz_16bit_05sec.wav',None,1000,1,3,8,0,,,,,,,,,169.32594969999627,170.3100562999898,170.31008015999396,172.811266100005,None,1,172.82818119999138,,,,,,,,,,,,,elpida_20_10_23,home_hugin04,2023-10-20_13h06.03.521,Oddball_task,2022.2.5,59.92739197015648,
standard,soundFiles/250Hz_44100Hz_16bit_05sec.wav',None,1000,1,4,9,3,,,,,,,,,173.8277769999986,174.79544690001057,174.79571675999614,177.29615010000998,None,1,177.31319479999365,,,,,,,,,,,,,elpida_20_10_23,home_hugin04,2023-10-20_13h06.03.521,Oddball_task,2022.2.5,59.92739197015648,
,,,,,,,,,,,,,,,,,,,,,,,,,178.3134749000019,178.3134749000019,space,2.0122065999894403,,,,,,,elpida_20_10_23,home_hugin04,2023-10-20_13h06.03.521,Oddball_task,2022.2.5,59.92739197015648,
standard,soundFiles/250Hz_44100Hz_16bit_05sec.wav',None,1000,,,,,0,0,0,2,,,,,180.36384119998547,181.348173699982,181.34865365999576,,None,1,,,182.34841129998676,,,,,,,,,,,elpida_20_10_23,home_hugin04,2023-10-20_13h06.03.521,Oddball_task,2022.2.5,59.92739197015648,
target,soundFiles/1200Hz_-3dBFS_3s_44.1kHz.wav',t,2000,,,,,0,1,1,4,,,,,183.8495402999979,184.8332017000066,184.8329773599835,187.33381479998934,t,1,,0.8477491000085138,,,,,,,,,,,,elpida_20_10_23,home_hugin04,2023-10-20_13h06.03.521,Oddball_task,2022.2.5,59.92739197015648,
standard,soundFiles/250Hz_44100Hz_16bit_05sec.wav',None,1000,,,,,0,2,2,3,,,,,187.35049099999014,188.33482769998955,188.33433505998983,190.83554480000748,None,1,,,189.33481679999386,,,,,,,,,,,elpida_20_10_23,home_hugin04,2023-10-20_13h06.03.521,Oddball_task,2022.2.5,59.92739197015648,
standard,soundFiles/250Hz_44100Hz_16bit_05sec.wav',None,1000,,,,,0,3,3,1,,,,,190.8520489000075,191.8356674000097,191.8358489599923,194.33717479999177,None,1,,,,,,,,,,,,,,elpida_20_10_23,home_hugin04,2023-10-20_13h06.03.521,Oddball_task,2022.2.5,59.92739197015648,
standard,soundFiles/250Hz_44100Hz_16bit_05sec.wav',None,1000,,,,,0,4,4,0,,,,,194.35354730000836,195.33711329998914,195.33741066000948,197.83836039999733,None,1,,,,,,,,,,,,,,elpida_20_10_23,home_hugin04,2023-10-20_13h06.03.521,Oddball_task,2022.2.5,59.92739197015648,
standard,soundFiles/250Hz_44100Hz_16bit_05sec.wav',None,1000,,,,,1,0,5,1,,,,,197.85506709999754,198.84012690000236,198.8388100599841,201.3397896999959,None,1,,,,,,,,,,,,,,elpida_20_10_23,home_hugin04,2023-10-20_13h06.03.521,Oddball_task,2022.2.5,59.92739197015648,
standard,soundFiles/250Hz_44100Hz_16bit_05sec.wav',None,1000,,,,,1,1,6,2,,,,,201.3565890000027,202.340529899986,202.34065156000725,204.84129869999015,None,1,,,,,,,,,,,,,,elpida_20_10_23,home_hugin04,2023-10-20_13h06.03.521,Oddball_task,2022.2.5,59.92739197015648,
standard,soundFiles/250Hz_44100Hz_16bit_05sec.wav',None,1000,,,,,1,2,7,3,,,,,204.85805529999197,205.84432319999905,205.84179895998386,,None,1,,,,,,,,,,,,,,elpida_20_10_23,home_hugin04,2023-10-20_13h06.03.521,Oddball_task,2022.2.5,59.92739197015648,
target,soundFiles/1200Hz_-3dBFS_3s_44.1kHz.wav',t,2000,,,,,1,3,8,4,,,,,208.35974660000647,209.34399459999986,209.3432368599897,211.84458909998648,t,1,,0.8169067999988329,,,,,,,,,,,,elpida_20_10_23,home_hugin04,2023-10-20_13h06.03.521,Oddball_task,2022.2.5,59.92739197015648,
standard,soundFiles/250Hz_44100Hz_16bit_05sec.wav',None,1000,,,,,1,4,9,0,,,,,211.8613886999956,212.84491159999743,212.84485246000986,215.34610819999943,None,1,,,213.8455515000096,,,,,,,,,,,elpida_20_10_23,home_hugin04,2023-10-20_13h06.03.521,Oddball_task,2022.2.5,59.92739197015648,
target,soundFiles/1200Hz_-3dBFS_3s_44.1kHz.wav',t,2000,,,,,2,0,10,4,,,,,215.36288699999568,216.34641890000785,216.34642686000734,218.84749620000366,t,1,,0.8207431000191718,,,,,,,,,,,,elpida_20_10_23,home_hugin04,2023-10-20_13h06.03.521,Oddball_task,2022.2.5,59.92739197015648,
standard,soundFiles/250Hz_44100Hz_16bit_05sec.wav',None,1000,,,,,2,1,11,1,,,,,218.8640679999953,219.84954329999164,219.8484843599872,,None,1,,,220.84851619999972,,,,,,,,,,,elpida_20_10_23,home_hugin04,2023-10-20_13h06.03.521,Oddball_task,2022.2.5,59.92739197015648,
standard,soundFiles/250Hz_44100Hz_16bit_05sec.wav',None,1000,,,,,2,2,12,3,,,,,222.36706759998924,223.33290539999143,223.3330588599929,225.83415559999412,None,1,,,,,,,,,,,,,,elpida_20_10_23,home_hugin04,2023-10-20_13h06.03.521,Oddball_task,2022.2.5,59.92739197015648,
standard,soundFiles/250Hz_44100Hz_16bit_05sec.wav',None,1000,,,,,2,3,13,0,,,,,225.85035359999165,226.83490250000614,226.83406845999707,229.335251099983,None,1,,,227.83445749999373,,,,,,,,,,,elpida_20_10_23,home_hugin04,2023-10-20_13h06.03.521,Oddball_task,2022.2.5,59.92739197015648,
standard,soundFiles/250Hz_44100Hz_16bit_05sec.wav',None,1000,,,,,2,4,14,2,,,,,229.35200720001012,230.335648999986,230.33544655998412,232.83789930000785,None,1,,,,,,,,,,,,,,elpida_20_10_23,home_hugin04,2023-10-20_13h06.03.521,Oddball_task,2022.2.5,59.92739197015648,
standard,soundFiles/250Hz_44100Hz_16bit_05sec.wav',None,1000,,,,,3,0,15,3,,,,,232.85543450000114,233.83709559999988,233.83710615999007,236.33815820000018,None,1,,,,,,,,,,,,,,elpida_20_10_23,home_hugin04,2023-10-20_13h06.03.521,Oddball_task,2022.2.5,59.92739197015648,
target,soundFiles/1200Hz_-3dBFS_3s_44.1kHz.wav',t,2000,,,,,3,1,16,4,,,,,236.35550020000665,237.33858370000962,237.3386222600093,239.83958339999663,t,1,,0.7434131000190973,,,,,,,,,,,,elpida_20_10_23,home_hugin04,2023-10-20_13h06.03.521,Oddball_task,2022.2.5,59.92739197015648,
standard,soundFiles/250Hz_44100Hz_16bit_05sec.wav',None,1000,,,,,3,2,17,0,,,,,239.85612089998904,240.8410506999935,240.84105185999942,243.3410514999996,None,1,,,,,,,,,,,,,,elpida_20_10_23,home_hugin04,2023-10-20_13h06.03.521,Oddball_task,2022.2.5,59.92739197015648,
standard,soundFiles/250Hz_44100Hz_16bit_05sec.wav',None,1000,,,,,3,3,18,1,,,,,243.35768300000927,244.34147539999685,244.3417357599974,246.84260599999106,None,1,,,,,,,,,,,,,,elpida_20_10_23,home_hugin04,2023-10-20_13h06.03.521,Oddball_task,2022.2.5,59.92739197015648,
standard,soundFiles/250Hz_44100Hz_16bit_05sec.wav',None,1000,,,,,3,4,19,2,,,,,246.85933959999238,247.84367139998358,247.84343545998854,250.3439864999964,None,1,,,,,,,,,,,,,,elpida_20_10_23,home_hugin04,2023-10-20_13h06.03.521,Oddball_task,2022.2.5,59.92739197015648,
standard,soundFiles/250Hz_44100Hz_16bit_05sec.wav',None,1000,,,,,4,0,20,3,,,,,250.36128320000716,251.34474329999648,251.34492305999447,253.8465506999928,None,1,,,,,,,,,,,,,,elpida_20_10_23,home_hugin04,2023-10-20_13h06.03.521,Oddball_task,2022.2.5,59.92739197015648,
standard,soundFiles/250Hz_44100Hz_16bit_05sec.wav',None,1000,,,,,4,1,21,2,,,,,253.86325659998693,254.84598959999857,254.8456233600009,257.34748329999275,None,1,,,255.8463991000026,,,,,,,,,,,elpida_20_10_23,home_hugin04,2023-10-20_13h06.03.521,Oddball_task,2022.2.5,59.92739197015648,
standard,soundFiles/250Hz_44100Hz_16bit_05sec.wav',None,1000,,,,,4,2,22,1,,,,,257.364298600005,258.3475376999995,258.348384959987,260.848745299998,None,1,,,,,,,,,,,,,,elpida_20_10_23,home_hugin04,2023-10-20_13h06.03.521,Oddball_task,2022.2.5,59.92739197015648,
target,soundFiles/1200Hz_-3dBFS_3s_44.1kHz.wav',t,2000,,,,,4,3,23,4,,,,,260.866380499996,261.83212430001004,261.83254255999054,264.3333452999941,t,1,,0.838677000021562,,,,,,,,,,,,elpida_20_10_23,home_hugin04,2023-10-20_13h06.03.521,Oddball_task,2022.2.5,59.92739197015648,
standard,soundFiles/250Hz_44100Hz_16bit_05sec.wav',None,1000,,,,,4,4,24,0,,,,,264.3502860000008,265.33447010000236,265.3336438599945,267.83451640000567,None,1,,,,,,,,,,,,,,elpida_20_10_23,home_hugin04,2023-10-20_13h06.03.521,Oddball_task,2022.2.5,59.92739197015648,
target,soundFiles/1200Hz_-3dBFS_3s_44.1kHz.wav',t,2000,,,,,5,0,25,4,,,,,267.85378330000094,268.8354955999821,268.8353159600083,271.33620459999656,t,1,,0.9208865000109654,,,,,,,,,,,,elpida_20_10_23,home_hugin04,2023-10-20_13h06.03.521,Oddball_task,2022.2.5,59.92739197015648,
standard,soundFiles/250Hz_44100Hz_16bit_05sec.wav',None,1000,,,,,5,1,26,0,,,,,271.35319619998336,272.33700199998566,272.3380884599901,274.8383984999964,None,1,,,,,,,,,,,,,,elpida_20_10_23,home_hugin04,2023-10-20_13h06.03.521,Oddball_task,2022.2.5,59.92739197015648,
standard,soundFiles/250Hz_44100Hz_16bit_05sec.wav',None,1000,,,,,5,2,27,3,,,,,274.85458009998547,275.8383603999973,275.8383409599919,278.3391755000048,None,1,,,276.8384471999889,,,,,,,,,,,elpida_20_10_23,home_hugin04,2023-10-20_13h06.03.521,Oddball_task,2022.2.5,59.92739197015648,
standard,soundFiles/250Hz_44100Hz_16bit_05sec.wav',None,1000,,,,,5,3,28,1,,,,,278.35581350000575,279.3402315999847,279.33950695999374,281.84150439998484,None,1,,,,,,,,,,,,,,elpida_20_10_23,home_hugin04,2023-10-20_13h06.03.521,Oddball_task,2022.2.5,59.92739197015648,
standard,soundFiles/250Hz_44100Hz_16bit_05sec.wav',None,1000,,,,,5,4,29,2,,,,,281.85793140000897,282.84105109999655,282.84142905999033,285.3416365000012,None,1,,,,,,,,,,,,,,elpida_20_10_23,home_hugin04,2023-10-20_13h06.03.521,Oddball_task,2022.2.5,59.92739197015648,
target,soundFiles/1200Hz_-3dBFS_3s_44.1kHz.wav',t,2000,,,,,6,0,30,4,,,,,285.3582325000025,286.34349060000386,286.34276556000987,288.84409500000766,t,1,,1.0506994999886956,,,,,,,,,,,,elpida_20_10_23,home_hugin04,2023-10-20_13h06.03.521,Oddball_task,2022.2.5,59.92739197015648,
standard,soundFiles/250Hz_44100Hz_16bit_05sec.wav',None,1000,,,,,6,1,31,3,,,,,288.8606199999922,289.8439611000067,289.8439993600041,292.3449828999874,None,1,,,,,,,,,,,,,,elpida_20_10_23,home_hugin04,2023-10-20_13h06.03.521,Oddball_task,2022.2.5,59.92739197015648,
standard,soundFiles/250Hz_44100Hz_16bit_05sec.wav',None,1000,,,,,6,2,32,2,,,,,292.36217249999754,293.345155899995,293.34688655998616,295.8465628999984,None,1,,,,,,,,,,,,,,elpida_20_10_23,home_hugin04,2023-10-20_13h06.03.521,Oddball_task,2022.2.5,59.92739197015648,
standard,soundFiles/250Hz_44100Hz_16bit_05sec.wav',None,1000,,,,,6,3,33,0,,,,,295.8633015000087,296.8473221999884,296.8477880600112,299.34814250000636,None,1,,,,,,,,,,,,,,elpida_20_10_23,home_hugin04,2023-10-20_13h06.03.521,Oddball_task,2022.2.5,59.92739197015648,
standard,soundFiles/250Hz_44100Hz_16bit_05sec.wav',None,1000,,,,,6,4,34,1,,,,,299.36611109998194,300.3337290000054,300.3319494599855,302.8330644000089,None,1,,,,,,,,,,,,,,elpida_20_10_23,home_hugin04,2023-10-20_13h06.03.521,Oddball_task,2022.2.5,59.92739197015648,
standard,soundFiles/250Hz_44100Hz_16bit_05sec.wav',None,1000,,,,,7,0,35,3,,,,,302.84955230000196,303.83375009999145,303.8335799600027,306.33547920000274,None,1,,,,,,,,,,,,,,elpida_20_10_23,home_hugin04,2023-10-20_13h06.03.521,Oddball_task,2022.2.5,59.92739197015648,
target,soundFiles/1200Hz_-3dBFS_3s_44.1kHz.wav',t,2000,,,,,7,1,36,4,,,,,306.35101409998606,307.33426259999396,307.33437305998814,309.8357924000011,t,1,,0.8199476999870967,,,,,,,,,,,,elpida_20_10_23,home_hugin04,2023-10-20_13h06.03.521,Oddball_task,2022.2.5,59.92739197015648,
standard,soundFiles/250Hz_44100Hz_16bit_05sec.wav',None,1000,,,,,7,2,37,0,,,,,309.85284390000743,310.83628349998617,310.8375412599853,313.33731219999027,None,1,,,,,,,,,,,,,,elpida_20_10_23,home_hugin04,2023-10-20_13h06.03.521,Oddball_task,2022.2.5,59.92739197015648,
standard,soundFiles/250Hz_44100Hz_16bit_05sec.wav',None,1000,,,,,7,3,38,1,,,,,313.35446740000043,314.3373436999973,314.3378519599937,316.8385819999967,None,1,,,,,,,,,,,,,,elpida_20_10_23,home_hugin04,2023-10-20_13h06.03.521,Oddball_task,2022.2.5,59.92739197015648,
standard,soundFiles/250Hz_44100Hz_16bit_05sec.wav',None,1000,,,,,7,4,39,2,,,,,316.8564053000009,317.83937299999525,317.83964845999435,320.3402950000018,None,1,,,,,,,,,,,,,,elpida_20_10_23,home_hugin04,2023-10-20_13h06.03.521,Oddball_task,2022.2.5,59.92739197015648,
standard,soundFiles/250Hz_44100Hz_16bit_05sec.wav',None,1000,,,,,8,0,40,1,,,,,320.35695600000327,321.3411402000056,321.34119695999834,323.84205750000547,None,1,,,,,,,,,,,,,,elpida_20_10_23,home_hugin04,2023-10-20_13h06.03.521,Oddball_task,2022.2.5,59.92739197015648,
standard,soundFiles/250Hz_44100Hz_16bit_05sec.wav',None,1000,,,,,8,1,41,0,,,,,323.8587755000044,324.8427432999888,324.84299506001116,327.34359259999474,None,1,,,,,,,,,,,,,,elpida_20_10_23,home_hugin04,2023-10-20_13h06.03.521,Oddball_task,2022.2.5,59.92739197015648,
standard,soundFiles/250Hz_44100Hz_16bit_05sec.wav',None,1000,,,,,8,2,42,3,,,,,327.3600166999968,328.34408670000266,328.3440238599869,330.844998799992,None,1,,,,,,,,,,,,,,elpida_20_10_23,home_hugin04,2023-10-20_13h06.03.521,Oddball_task,2022.2.5,59.92739197015648,
target,soundFiles/1200Hz_-3dBFS_3s_44.1kHz.wav',t,2000,,,,,8,3,43,4,,,,,330.86165919998894,331.84688460000325,331.8459302600095,334.3468888000061,t,1,,0.8221861000056379,,,,,,,,,,,,elpida_20_10_23,home_hugin04,2023-10-20_13h06.03.521,Oddball_task,2022.2.5,59.92739197015648,
standard,soundFiles/250Hz_44100Hz_16bit_05sec.wav',None,1000,,,,,8,4,44,2,,,,,334.3635021999944,335.3476085999864,335.3471488600044,,None,1,,,336.3478524000093,,,,,,,,,,,elpida_20_10_23,home_hugin04,2023-10-20_13h06.03.521,Oddball_task,2022.2.5,59.92739197015648,
standard,soundFiles/250Hz_44100Hz_16bit_05sec.wav',None,1000,,,,,9,0,45,0,,,,,337.8490339999844,338.8503548000008,338.84943896000914,,None,1,,,,,,,,341.34885710000526,,,,,,elpida_20_10_23,home_hugin04,2023-10-20_13h06.03.521,Oddball_task,2022.2.5,59.92739197015648,
standard,soundFiles/250Hz_44100Hz_16bit_05sec.wav',None,1000,,,,,9,1,46,3,,,,,341.3657955999952,342.3343424999912,342.3332246600039,344.83683949999977,None,1,,,,,,,,,,,,,,elpida_20_10_23,home_hugin04,2023-10-20_13h06.03.521,Oddball_task,2022.2.5,59.92739197015648,
target,soundFiles/1200Hz_-3dBFS_3s_44.1kHz.wav',t,2000,,,,,9,2,47,4,,,,,344.8507549999922,345.83490139999776,345.8348458600085,348.3355673000042,t,1,,0.7869819999905303,,,,,,,,,,,,elpida_20_10_23,home_hugin04,2023-10-20_13h06.03.521,Oddball_task,2022.2.5,59.92739197015648,
standard,soundFiles/250Hz_44100Hz_16bit_05sec.wav',None,1000,,,,,9,3,48,2,,,,,348.3521597000072,349.3361287000007,349.33623356001044,351.8372549999913,None,1,,,350.3384665999911,,,,,,,,,,,elpida_20_10_23,home_hugin04,2023-10-20_13h06.03.521,Oddball_task,2022.2.5,59.92739197015648,
standard,soundFiles/250Hz_44100Hz_16bit_05sec.wav',None,1000,,,,,9,4,49,1,,,,,351.853760900005,352.83832819998497,352.83779546000005,355.338740999985,None,1,,,,,,,,,,,,,,elpida_20_10_23,home_hugin04,2023-10-20_13h06.03.521,Oddball_task,2022.2.5,59.92739197015648,
standard,soundFiles/250Hz_44100Hz_16bit_05sec.wav',None,1000,,,,,10,0,50,1,,,,,355.35660060000373,356.3398550999991,356.3391195599834,358.84047649998683,None,1,,,357.3393464999972,,,,,,,,,,,elpida_20_10_23,home_hugin04,2023-10-20_13h06.03.521,Oddball_task,2022.2.5,59.92739197015648,
target,soundFiles/1200Hz_-3dBFS_3s_44.1kHz.wav',t,2000,,,,,10,1,51,4,,,,,358.85696820000885,359.8413426000043,359.841192959997,362.3423119999934,t,1,,0.7642270000069402,,,,,,,,,,,,elpida_20_10_23,home_hugin04,2023-10-20_13h06.03.521,Oddball_task,2022.2.5,59.92739197015648,
standard,soundFiles/250Hz_44100Hz_16bit_05sec.wav',None,1000,,,,,10,2,52,2,,,,,362.3586529000022,363.3426061999926,363.3426638599922,365.8426749999926,None,1,,,,,,,,,,,,,,elpida_20_10_23,home_hugin04,2023-10-20_13h06.03.521,Oddball_task,2022.2.5,59.92739197015648,
standard,soundFiles/250Hz_44100Hz_16bit_05sec.wav',None,1000,,,,,10,3,53,3,,,,,365.85977169999387,366.8440529000072,366.8435930599953,369.34437340000295,None,1,,,,,,,,,,,,,,elpida_20_10_23,home_hugin04,2023-10-20_13h06.03.521,Oddball_task,2022.2.5,59.92739197015648,
standard,soundFiles/250Hz_44100Hz_16bit_05sec.wav',None,1000,,,,,10,4,54,0,,,,,369.36201019998407,370.3449287999829,370.34550365999166,372.84581269999035,None,1,,,,,,,,,,,,,,elpida_20_10_23,home_hugin04,2023-10-20_13h06.03.521,Oddball_task,2022.2.5,59.92739197015648,
standard,soundFiles/250Hz_44100Hz_16bit_05sec.wav',None,1000,,,,,11,0,55,0,,,,,372.86301619998994,373.8461851000029,373.8459226600098,376.3482549999899,None,1,,,,,,,,,,,,,,elpida_20_10_23,home_hugin04,2023-10-20_13h06.03.521,Oddball_task,2022.2.5,59.92739197015648,
standard,soundFiles/250Hz_44100Hz_16bit_05sec.wav',None,1000,,,,,11,1,56,3,,,,,376.3643156999897,377.34823390000383,377.34789816000557,379.84911789998296,None,1,,,,,,,,,,,,,,elpida_20_10_23,home_hugin04,2023-10-20_13h06.03.521,Oddball_task,2022.2.5,59.92739197015648,
standard,soundFiles/250Hz_44100Hz_16bit_05sec.wav',None,1000,,,,,11,2,57,1,,,,,379.86566740000853,380.8336716000049,380.8334616600041,383.33418450001045,None,1,,,,,,,,,,,,,,elpida_20_10_23,home_hugin04,2023-10-20_13h06.03.521,Oddball_task,2022.2.5,59.92739197015648,
standard,soundFiles/250Hz_44100Hz_16bit_05sec.wav',None,1000,,,,,11,3,58,2,,,,,383.35222780000186,384.3352121000062,384.33485346000816,386.8354018999962,None,1,,,,,,,,,,,,,,elpida_20_10_23,home_hugin04,2023-10-20_13h06.03.521,Oddball_task,2022.2.5,59.92739197015648,
target,soundFiles/1200Hz_-3dBFS_3s_44.1kHz.wav',t,2000,,,,,11,4,59,4,,,,,386.8523521999887,387.83579009998357,387.83549615998345,390.33634639999946,t,1,,0.6842300000134856,,,,,,,,,,,,elpida_20_10_23,home_hugin04,2023-10-20_13h06.03.521,Oddball_task,2022.2.5,59.92739197015648,
standard,soundFiles/250Hz_44100Hz_16bit_05sec.wav',None,1000,,,,,12,0,60,2,,,,,390.3543553999916,391.3375157999981,391.33735895999416,393.8387570999912,None,1,,,,,,,,,,,,,,elpida_20_10_23,home_hugin04,2023-10-20_13h06.03.521,Oddball_task,2022.2.5,59.92739197015648,
standard,soundFiles/250Hz_44100Hz_16bit_05sec.wav',None,1000,,,,,12,1,61,0,,,,,393.85529579999275,394.8408284999896,394.8390566599992,397.34021409999696,None,1,,,,,,,,,,,,,,elpida_20_10_23,home_hugin04,2023-10-20_13h06.03.521,Oddball_task,2022.2.5,59.92739197015648,
target,soundFiles/1200Hz_-3dBFS_3s_44.1kHz.wav',t,2000,,,,,12,2,62,4,,,,,397.3566034999967,398.3404940000037,398.34047506000206,400.8412393000035,t,1,,0.7631592999969143,,,,,,,,,,,,elpida_20_10_23,home_hugin04,2023-10-20_13h06.03.521,Oddball_task,2022.2.5,59.92739197015648,
standard,soundFiles/250Hz_44100Hz_16bit_05sec.wav',None,1000,,,,,12,3,63,1,,,,,400.8598096999922,401.84232890000567,401.8418011600006,404.3442045999982,None,1,,,,,,,,,,,,,,elpida_20_10_23,home_hugin04,2023-10-20_13h06.03.521,Oddball_task,2022.2.5,59.92739197015648,
standard,soundFiles/250Hz_44100Hz_16bit_05sec.wav',None,1000,,,,,12,4,64,3,,,,,404.35968120000325,405.3436229999934,405.34305385999323,407.844236200006,None,1,,,,,,,,,,,,,,elpida_20_10_23,home_hugin04,2023-10-20_13h06.03.521,Oddball_task,2022.2.5,59.92739197015648,
standard,soundFiles/250Hz_44100Hz_16bit_05sec.wav',None,1000,,,,,13,0,65,3,,,,,407.86231269998825,408.84479410000495,408.8454313599941,411.34553250001045,None,1,,,,,,,,,,,,,,elpida_20_10_23,home_hugin04,2023-10-20_13h06.03.521,Oddball_task,2022.2.5,59.92739197015648,
target,soundFiles/1200Hz_-3dBFS_3s_44.1kHz.wav',t,2000,,,,,13,1,66,4,,,,,411.3623760000046,412.3467829999863,412.34624495999014,414.84764500000165,t,1,,0.6720865999814123,,,,,,,,,,,,elpida_20_10_23,home_hugin04,2023-10-20_13h06.03.521,Oddball_task,2022.2.5,59.92739197015648,
standard,soundFiles/250Hz_44100Hz_16bit_05sec.wav',None,1000,,,,,13,2,67,0,,,,,414.8647813999851,415.84850839999854,415.84783666000294,418.3486339999945,None,1,,,,,,,,,,,,,,elpida_20_10_23,home_hugin04,2023-10-20_13h06.03.521,Oddball_task,2022.2.5,59.92739197015648,
standard,soundFiles/250Hz_44100Hz_16bit_05sec.wav',None,1000,,,,,13,3,68,2,,,,,418.3655252000026,419.33249790000264,419.3325485600071,421.83402690000366,None,1,,,,,,,,,,,,,,elpida_20_10_23,home_hugin04,2023-10-20_13h06.03.521,Oddball_task,2022.2.5,59.92739197015648,
standard,soundFiles/250Hz_44100Hz_16bit_05sec.wav',None,1000,,,,,13,4,69,1,,,,,421.85031939999317,422.8340850000095,422.8341467600112,425.33578839999973,None,1,,,,,,,,,,,,,,elpida_20_10_23,home_hugin04,2023-10-20_13h06.03.521,Oddball_task,2022.2.5,59.92739197015648,
standard,soundFiles/250Hz_44100Hz_16bit_05sec.wav',None,1000,,,,,14,0,70,2,,,,,425.35287639999297,426.33519509999314,426.3363148599892,428.8367149999831,None,1,,,,,,,,,,,,,,elpida_20_10_23,home_hugin04,2023-10-20_13h06.03.521,Oddball_task,2022.2.5,59.92739197015648,
target,soundFiles/1200Hz_-3dBFS_3s_44.1kHz.wav',t,2000,,,,,14,1,71,4,,,,,428.8541158000007,429.8372137999977,429.8374325600016,432.33812410000246,t,1,,0.785865499987267,430.8374533999886,,,,,,,,,,,elpida_20_10_23,home_hugin04,2023-10-20_13h06.03.521,Oddball_task,2022.2.5,59.92739197015648,
standard,soundFiles/250Hz_44100Hz_16bit_05sec.wav',None,1000,,,,,14,2,72,1,,,,,432.35485470001004,433.3389767000044,433.3391834600043,435.8395967000106,None,1,,,,,,,,,,,,,,elpida_20_10_23,home_hugin04,2023-10-20_13h06.03.521,Oddball_task,2022.2.5,59.92739197015648,
standard,soundFiles/250Hz_44100Hz_16bit_05sec.wav',None,1000,,,,,14,3,73,0,,,,,435.85627839999506,436.84001980000176,436.84072265999566,439.341448399995,None,1,,,437.84096679999493,,,,,,,,,,,elpida_20_10_23,home_hugin04,2023-10-20_13h06.03.521,Oddball_task,2022.2.5,59.92739197015648,
standard,soundFiles/250Hz_44100Hz_16bit_05sec.wav',None,1000,,,,,14,4,74,3,,,,,439.35777619999135,440.3415937999962,440.3415978599951,442.84314159999485,None,1,,,,,,,,,,,,,,elpida_20_10_23,home_hugin04,2023-10-20_13h06.03.521,Oddball_task,2022.2.5,59.92739197015648,
standard,soundFiles/250Hz_44100Hz_16bit_05sec.wav',None,1000,,,,,15,0,75,2,,,,,442.8595290000085,443.8437577000004,443.8439700599847,446.3451204999874,None,1,,,,,,,,,,,,,,elpida_20_10_23,home_hugin04,2023-10-20_13h06.03.521,Oddball_task,2022.2.5,59.92739197015648,
standard,soundFiles/250Hz_44100Hz_16bit_05sec.wav',None,1000,,,,,15,1,76,3,,,,,446.36071919999085,447.3444271000044,447.3447809599893,449.84628179998253,None,1,,,,,,,,,,,,,,elpida_20_10_23,home_hugin04,2023-10-20_13h06.03.521,Oddball_task,2022.2.5,59.92739197015648,
standard,soundFiles/250Hz_44100Hz_16bit_05sec.wav',None,1000,,,,,15,2,77,0,,,,,449.8619921999925,450.8459920999885,450.84597146000306,453.3471409000049,None,1,,,,,,,,,,,,,,elpida_20_10_23,home_hugin04,2023-10-20_13h06.03.521,Oddball_task,2022.2.5,59.92739197015648,
target,soundFiles/1200Hz_-3dBFS_3s_44.1kHz.wav',t,2000,,,,,15,3,78,4,,,,,453.36425569999847,454.3310205999878,454.3335253599944,456.8323027000006,t,1,,0.7249360000132583,,,,,,,,,,,,elpida_20_10_23,home_hugin04,2023-10-20_13h06.03.521,Oddball_task,2022.2.5,59.92739197015648,
standard,soundFiles/250Hz_44100Hz_16bit_05sec.wav',None,1000,,,,,15,4,79,1,,,,,456.8663801999937,457.83271680001053,457.8324551599944,460.3333316000062,None,1,,,,,,,,,,,,,,elpida_20_10_23,home_hugin04,2023-10-20_13h06.03.521,Oddball_task,2022.2.5,59.92739197015648,
standard,soundFiles/250Hz_44100Hz_16bit_05sec.wav',None,1000,,,,,16,0,80,1,,,,,460.3500648000045,461.3336885999888,461.33372005999263,463.8347192000074,None,1,,,,,,,,,,,,,,elpida_20_10_23,home_hugin04,2023-10-20_13h06.03.521,Oddball_task,2022.2.5,59.92739197015648,
standard,soundFiles/250Hz_44100Hz_16bit_05sec.wav',None,1000,,,,,16,1,81,0,,,,,463.8513254999998,464.83493859999,464.835132460008,467.3364880000008,None,1,,,,,,,,,,,,,,elpida_20_10_23,home_hugin04,2023-10-20_13h06.03.521,Oddball_task,2022.2.5,59.92739197015648,
standard,soundFiles/250Hz_44100Hz_16bit_05sec.wav',None,1000,,,,,16,2,82,2,,,,,467.3531054999912,468.3363057000097,468.33648375999474,470.8381384999957,None,1,,,,,,,,,,,,,,elpida_20_10_23,home_hugin04,2023-10-20_13h06.03.521,Oddball_task,2022.2.5,59.92739197015648,
target,soundFiles/1200Hz_-3dBFS_3s_44.1kHz.wav',t,2000,,,,,16,3,83,4,,,,,470.85466809998616,471.83767439998337,471.8381916599901,474.33922709999024,t,1,,0.7061132999951951,,,,,,,,,,,,elpida_20_10_23,home_hugin04,2023-10-20_13h06.03.521,Oddball_task,2022.2.5,59.92739197015648,
standard,soundFiles/250Hz_44100Hz_16bit_05sec.wav',None,1000,,,,,16,4,84,3,,,,,474.35670040000696,475.33982709998963,475.3399556600052,477.8407089000102,None,1,,,,,,,,,,,,,,elpida_20_10_23,home_hugin04,2023-10-20_13h06.03.521,Oddball_task,2022.2.5,59.92739197015648,
standard,soundFiles/250Hz_44100Hz_16bit_05sec.wav',None,1000,,,,,17,0,85,2,,,,,477.85728460000246,478.8412671999831,478.8414571600006,481.34350719998474,None,1,,,479.8415932999924,,,,,,,,,,,elpida_20_10_23,home_hugin04,2023-10-20_13h06.03.521,Oddball_task,2022.2.5,59.92739197015648,
standard,soundFiles/250Hz_44100Hz_16bit_05sec.wav',None,1000,,,,,17,1,86,3,,,,,481.3600334000075,482.343790599989,482.34310536000703,484.8439825999958,None,1,,,,,,,,,,,,,,elpida_20_10_23,home_hugin04,2023-10-20_13h06.03.521,Oddball_task,2022.2.5,59.92739197015648,
target,soundFiles/1200Hz_-3dBFS_3s_44.1kHz.wav',t,2000,,,,,17,2,87,4,,,,,484.860273600003,485.8439657999843,485.84481525998854,488.34585670000524,t,1,,0.7678198000066914,,,,,,,,,,,,elpida_20_10_23,home_hugin04,2023-10-20_13h06.03.521,Oddball_task,2022.2.5,59.92739197015648,
standard,soundFiles/250Hz_44100Hz_16bit_05sec.wav',None,1000,,,,,17,3,88,1,,,,,488.36177769998903,489.345684800006,489.3459335600055,491.8468894000107,None,1,,,,,,,,,,,,,,elpida_20_10_23,home_hugin04,2023-10-20_13h06.03.521,Oddball_task,2022.2.5,59.92739197015648,
standard,soundFiles/250Hz_44100Hz_16bit_05sec.wav',None,1000,,,,,17,4,89,0,,,,,491.8636770999874,492.84685719999834,492.8484483600041,495.3484536999895,None,1,,,493.84766440000385,,,,,,,,,,,elpida_20_10_23,home_hugin04,2023-10-20_13h06.03.521,Oddball_task,2022.2.5,59.92739197015648,
standard,soundFiles/250Hz_44100Hz_16bit_05sec.wav',None,1000,,,,,18,0,90,1,,,,,495.36478279999574,496.33180549999815,496.33200986000884,498.83287350001046,None,1,,,,,,,,,,,,,,elpida_20_10_23,home_hugin04,2023-10-20_13h06.03.521,Oddball_task,2022.2.5,59.92739197015648,
standard,soundFiles/250Hz_44100Hz_16bit_05sec.wav',None,1000,,,,,18,1,91,3,,,,,498.85032050000154,499.834202500002,499.83374275999086,502.33467609999934,None,1,,,,,,,,,,,,,,elpida_20_10_23,home_hugin04,2023-10-20_13h06.03.521,Oddball_task,2022.2.5,59.92739197015648,
standard,soundFiles/250Hz_44100Hz_16bit_05sec.wav',None,1000,,,,,18,2,92,2,,,,,502.3520152999845,503.33546000000206,503.33531455999764,505.83646980000776,None,1,,,,,,,,,,,,,,elpida_20_10_23,home_hugin04,2023-10-20_13h06.03.521,Oddball_task,2022.2.5,59.92739197015648,
target,soundFiles/1200Hz_-3dBFS_3s_44.1kHz.wav',t,2000,,,,,18,3,93,4,,,,,505.8528929000022,506.83690860000206,506.8364520599862,509.3377291999932,t,1,,0.8960898999939673,,,,,,,,,,,,elpida_20_10_23,home_hugin04,2023-10-20_13h06.03.521,Oddball_task,2022.2.5,59.92739197015648,
standard,soundFiles/250Hz_44100Hz_16bit_05sec.wav',None,1000,,,,,18,4,94,0,,,,,509.3542162000085,510.3375459999952,510.33802156000456,512.8392244999995,None,1,,,,,,,,,,,,,,elpida_20_10_23,home_hugin04,2023-10-20_13h06.03.521,Oddball_task,2022.2.5,59.92739197015648,
standard,soundFiles/250Hz_44100Hz_16bit_05sec.wav',None,1000,,,,,19,0,95,1,,,,,512.8558972000028,513.840083099989,513.839749360006,516.3406432000047,None,1,,,,,,,,,,,,,,elpida_20_10_23,home_hugin04,2023-10-20_13h06.03.521,Oddball_task,2022.2.5,59.92739197015648,
standard,soundFiles/250Hz_44100Hz_16bit_05sec.wav',None,1000,,,,,19,1,96,3,,,,,516.3572617000027,517.3414969999867,517.3412119599961,519.8417218000104,None,1,,,,,,,,,,,,,,elpida_20_10_23,home_hugin04,2023-10-20_13h06.03.521,Oddball_task,2022.2.5,59.92739197015648,
target,soundFiles/1200Hz_-3dBFS_3s_44.1kHz.wav',t,2000,,,,,19,2,97,4,,,,,519.8593278999906,520.8420026999956,520.8419192599977,523.3437743999821,t,1,,0.6654092000098899,,,,,,,,,,,,elpida_20_10_23,home_hugin04,2023-10-20_13h06.03.521,Oddball_task,2022.2.5,59.92739197015648,
standard,soundFiles/250Hz_44100Hz_16bit_05sec.wav',None,1000,,,,,19,3,98,2,,,,,523.3602616999997,524.3456981999916,524.3445886600093,526.8448022000084,None,1,,,,,,,,,,,,,,elpida_20_10_23,home_hugin04,2023-10-20_13h06.03.521,Oddball_task,2022.2.5,59.92739197015648,
standard,soundFiles/250Hz_44100Hz_16bit_05sec.wav',None,1000,,,,,19,4,99,0,,,,,526.8615465000039,527.8461042999988,527.8453939600004,530.3464165999903,None,1,,,,,,,,,,,,,,elpida_20_10_23,home_hugin04,2023-10-20_13h06.03.521,Oddball_task,2022.2.5,59.92739197015648,
target,soundFiles/1200Hz_-3dBFS_3s_44.1kHz.wav',t,2000,,,,,20,0,100,4,,,,,530.3647424000083,531.3467067999882,531.3471410600032,533.8480989999953,t,1,,0.7410088999895379,,,,,,,,,,,,elpida_20_10_23,home_hugin04,2023-10-20_13h06.03.521,Oddball_task,2022.2.5,59.92739197015648,
standard,soundFiles/250Hz_44100Hz_16bit_05sec.wav',None,1000,,,,,20,1,101,3,,,,,533.8648150000081,534.832796600007,534.8320225599891,537.3327946999925,None,1,,,,,,,,,,,,,,elpida_20_10_23,home_hugin04,2023-10-20_13h06.03.521,Oddball_task,2022.2.5,59.92739197015648,
standard,soundFiles/250Hz_44100Hz_16bit_05sec.wav',None,1000,,,,,20,2,102,0,,,,,537.3496451000101,538.3328385000059,538.3331024600047,540.8349197999923,None,1,,,,,,,,,,,,,,elpida_20_10_23,home_hugin04,2023-10-20_13h06.03.521,Oddball_task,2022.2.5,59.92739197015648,
standard,soundFiles/250Hz_44100Hz_16bit_05sec.wav',None,1000,,,,,20,3,103,1,,,,,540.8512028999976,541.8345195000002,541.8344747600058,544.3363733000006,None,1,,,,,,,,,,,,,,elpida_20_10_23,home_hugin04,2023-10-20_13h06.03.521,Oddball_task,2022.2.5,59.92739197015648,
standard,soundFiles/250Hz_44100Hz_16bit_05sec.wav',None,1000,,,,,20,4,104,2,,,,,544.3523820999835,545.3359360999893,545.3357536599942,547.8372881000105,None,1,,,,,,,,,,,,,,elpida_20_10_23,home_hugin04,2023-10-20_13h06.03.521,Oddball_task,2022.2.5,59.92739197015648,
standard,soundFiles/250Hz_44100Hz_16bit_05sec.wav',None,1000,,,,,21,0,105,2,,,,,547.8540061000094,548.8374537999916,548.8375429599982,551.3383074000012,None,1,,,,,,,,,,,,,,elpida_20_10_23,home_hugin04,2023-10-20_13h06.03.521,Oddball_task,2022.2.5,59.92739197015648,
standard,soundFiles/250Hz_44100Hz_16bit_05sec.wav',None,1000,,,,,21,1,106,0,,,,,551.3549086999847,552.3389405999915,552.339329859984,554.840546899999,None,1,,,,,,,,,,,,,,elpida_20_10_23,home_hugin04,2023-10-20_13h06.03.521,Oddball_task,2022.2.5,59.92739197015648,
standard,soundFiles/250Hz_44100Hz_16bit_05sec.wav',None,1000,,,,,21,2,107,3,,,,,554.8566460000002,555.8404797999829,555.8408714599937,558.3417580999958,None,1,,,,,,,,,,,,,,elpida_20_10_23,home_hugin04,2023-10-20_13h06.03.521,Oddball_task,2022.2.5,59.92739197015648,
standard,soundFiles/250Hz_44100Hz_16bit_05sec.wav',None,1000,,,,,21,3,108,1,,,,,558.358696499985,559.3423915999883,559.344256759985,561.8432573000027,None,1,,,,,,,,,,,,,,elpida_20_10_23,home_hugin04,2023-10-20_13h06.03.521,Oddball_task,2022.2.5,59.92739197015648,
target,soundFiles/1200Hz_-3dBFS_3s_44.1kHz.wav',t,2000,,,,,21,4,109,4,,,,,561.8603866999911,562.8451945999986,562.844977560002,565.3443242000067,t,1,,0.7206362999859266,,,,,,,,,,,,elpida_20_10_23,home_hugin04,2023-10-20_13h06.03.521,Oddball_task,2022.2.5,59.92739197015648,
target,soundFiles/1200Hz_-3dBFS_3s_44.1kHz.wav',t,2000,,,,,22,0,110,4,,,,,565.3612769999891,566.345464699989,566.3453201599914,568.8461058000103,t,1,,1.0375373999995645,,,,,,,,,,,,elpida_20_10_23,home_hugin04,2023-10-20_13h06.03.521,Oddball_task,2022.2.5,59.92739197015648,
standard,soundFiles/250Hz_44100Hz_16bit_05sec.wav',None,1000,,,,,22,1,111,3,,,,,568.8627035999962,569.8473464999988,569.846933459994,572.3489897999971,None,1,,,,,,,,,,,,,,elpida_20_10_23,home_hugin04,2023-10-20_13h06.03.521,Oddball_task,2022.2.5,59.92739197015648,
standard,soundFiles/250Hz_44100Hz_16bit_05sec.wav',None,1000,,,,,22,2,112,0,,,,,572.3643336000096,573.3482286999933,573.3477014599921,575.8491395000019,None,1,,,,,,,,,,,,,,elpida_20_10_23,home_hugin04,2023-10-20_13h06.03.521,Oddball_task,2022.2.5,59.92739197015648,
standard,soundFiles/250Hz_44100Hz_16bit_05sec.wav',None,1000,,,,,22,3,113,1,,,,,575.8655743999989,576.8328416000004,576.8327904599864,579.3352982999932,None,1,,,,,,,,,,,,,,elpida_20_10_23,home_hugin04,2023-10-20_13h06.03.521,Oddball_task,2022.2.5,59.92739197015648,
standard,soundFiles/250Hz_44100Hz_16bit_05sec.wav',None,1000,,,,,22,4,114,2,,,,,579.3507107000041,580.3359279999859,580.3349441600003,582.835416499991,None,1,,,,,,,,,,,,,,elpida_20_10_23,home_hugin04,2023-10-20_13h06.03.521,Oddball_task,2022.2.5,59.92739197015648,
target,soundFiles/1200Hz_-3dBFS_3s_44.1kHz.wav',t,2000,,,,,23,0,115,4,,,,,582.8524706999888,583.8356567999872,583.836066259988,586.3366984000022,t,1,,0.8633475000096951,,,,,,,,,,,,elpida_20_10_23,home_hugin04,2023-10-20_13h06.03.521,Oddball_task,2022.2.5,59.92739197015648,
standard,soundFiles/250Hz_44100Hz_16bit_05sec.wav',None,1000,,,,,23,1,116,2,,,,,586.3562461999827,587.3374333999818,587.3376712599857,589.8381513000058,None,1,,,,,,,,,,,,,,elpida_20_10_23,home_hugin04,2023-10-20_13h06.03.521,Oddball_task,2022.2.5,59.92739197015648,
standard,soundFiles/250Hz_44100Hz_16bit_05sec.wav',None,1000,,,,,23,2,117,1,,,,,589.8546725999913,590.8394474000088,590.8395712599886,593.3401411999948,None,1,,,,,,,,,,,,,,elpida_20_10_23,home_hugin04,2023-10-20_13h06.03.521,Oddball_task,2022.2.5,59.92739197015648,
standard,soundFiles/250Hz_44100Hz_16bit_05sec.wav',None,1000,,,,,23,3,118,3,,,,,593.356272999983,594.3409687000094,594.3403561599989,596.8416443000024,None,1,,,,,,,,,,,,,,elpida_20_10_23,home_hugin04,2023-10-20_13h06.03.521,Oddball_task,2022.2.5,59.92739197015648,
standard,soundFiles/250Hz_44100Hz_16bit_05sec.wav',None,1000,,,,,23,4,119,0,,,,,596.8581791000033,597.8422349999892,597.8415645600035,600.3433230000082,None,1,,,,,,,,,,,,,,elpida_20_10_23,home_hugin04,2023-10-20_13h06.03.521,Oddball_task,2022.2.5,59.92739197015648,
target,soundFiles/1200Hz_-3dBFS_3s_44.1kHz.wav',t,2000,,,,,24,0,120,4,,,,,600.3600055999996,601.3437734000036,601.3434845599841,603.844956099987,t,1,,0.6692175999924075,602.3436146999884,,,,,,,,,,,elpida_20_10_23,home_hugin04,2023-10-20_13h06.03.521,Oddball_task,2022.2.5,59.92739197015648,
standard,soundFiles/250Hz_44100Hz_16bit_05sec.wav',None,1000,,,,,24,1,121,3,,,,,603.8619695999951,604.8444189000002,604.8448109599849,607.3457494000031,None,1,,,,,,,,,,,,,,elpida_20_10_23,home_hugin04,2023-10-20_13h06.03.521,Oddball_task,2022.2.5,59.92739197015648,
standard,soundFiles/250Hz_44100Hz_16bit_05sec.wav',None,1000,,,,,24,2,122,1,,,,,607.362194699992,608.3462590999843,608.346200259999,610.8486356000067,None,1,,,,,,,,,,,,,,elpida_20_10_23,home_hugin04,2023-10-20_13h06.03.521,Oddball_task,2022.2.5,59.92739197015648,
standard,soundFiles/250Hz_44100Hz_16bit_05sec.wav',None,1000,,,,,24,3,123,2,,,,,610.864948500006,611.8475400999887,611.8477390599874,614.3483885999885,None,1,,,,,,,,,,,,,,elpida_20_10_23,home_hugin04,2023-10-20_13h06.03.521,Oddball_task,2022.2.5,59.92739197015648,
standard,soundFiles/250Hz_44100Hz_16bit_05sec.wav',None,1000,,,,,24,4,124,0,,,,,614.3651780000073,615.3332363000081,615.3327067599894,617.8341233999818,None,1,,,616.3330531000101,,,,,,,,,,,elpida_20_10_23,home_hugin04,2023-10-20_13h06.03.521,Oddball_task,2022.2.5,59.92739197015648,
standard,soundFiles/250Hz_44100Hz_16bit_05sec.wav',None,1000,,,,,25,0,125,0,,,,,617.8511163000076,618.8344476000057,618.8341637599951,621.3359722000023,None,1,,,,,,,,,,,,,,elpida_20_10_23,home_hugin04,2023-10-20_13h06.03.521,Oddball_task,2022.2.5,59.92739197015648,
target,soundFiles/1200Hz_-3dBFS_3s_44.1kHz.wav',t,2000,,,,,25,1,126,4,,,,,621.3519120999845,622.3357325000106,622.3360324599926,624.8370489999943,t,1,,0.6840365999960341,,,,,,,,,,,,elpida_20_10_23,home_hugin04,2023-10-20_13h06.03.521,Oddball_task,2022.2.5,59.92739197015648,
standard,soundFiles/250Hz_44100Hz_16bit_05sec.wav',None,1000,,,,,25,2,127,2,,,,,624.8536318999832,625.8369157999987,625.8371717599948,628.3380952999869,None,1,,,,,,,,,,,,,,elpida_20_10_23,home_hugin04,2023-10-20_13h06.03.521,Oddball_task,2022.2.5,59.92739197015648,
standard,soundFiles/250Hz_44100Hz_16bit_05sec.wav',None,1000,,,,,25,3,128,1,,,,,628.3552713000099,629.3388771000027,629.3392986600084,631.8394319000072,None,1,,,,,,,,,,,,,,elpida_20_10_23,home_hugin04,2023-10-20_13h06.03.521,Oddball_task,2022.2.5,59.92739197015648,
standard,soundFiles/250Hz_44100Hz_16bit_05sec.wav',None,1000,,,,,25,4,129,3,,,,,631.8569282999961,632.8401195000042,632.8400884599978,635.3412810000009,None,1,,,,,,,,,,,,,,elpida_20_10_23,home_hugin04,2023-10-20_13h06.03.521,Oddball_task,2022.2.5,59.92739197015648,
target,soundFiles/1200Hz_-3dBFS_3s_44.1kHz.wav',t,2000,,,,,26,0,130,4,,,,,635.3579559999926,636.3417615999933,636.3415010599856,638.8424188999925,t,1,,0.676310899987584,,,,,,,,,,,,elpida_20_10_23,home_hugin04,2023-10-20_13h06.03.521,Oddball_task,2022.2.5,59.92739197015648,
standard,soundFiles/250Hz_44100Hz_16bit_05sec.wav',None,1000,,,,,26,1,131,3,,,,,638.8595576999942,639.8431593999849,639.842760960004,642.3441011999967,None,1,,,640.8437858000107,,,,,,,,,,,elpida_20_10_23,home_hugin04,2023-10-20_13h06.03.521,Oddball_task,2022.2.5,59.92739197015648,
standard,soundFiles/250Hz_44100Hz_16bit_05sec.wav',None,1000,,,,,26,2,132,0,,,,,642.360872099991,643.3448052000022,643.3445320599858,645.8459584999946,None,1,,,,,,,,,,,,,,elpida_20_10_23,home_hugin04,2023-10-20_13h06.03.521,Oddball_task,2022.2.5,59.92739197015648,
standard,soundFiles/250Hz_44100Hz_16bit_05sec.wav',None,1000,,,,,26,3,133,1,,,,,645.8630942000018,646.8460370999819,646.8466185600118,649.3469233000069,None,1,,,,,,,,,,,,,,elpida_20_10_23,home_hugin04,2023-10-20_13h06.03.521,Oddball_task,2022.2.5,59.92739197015648,
standard,soundFiles/250Hz_44100Hz_16bit_05sec.wav',None,1000,,,,,26,4,134,2,,,,,649.3639585000055,650.3473254999844,650.3483167599916,652.8485067999864,None,1,,,651.348743199982,,,,,,,,,,,elpida_20_10_23,home_hugin04,2023-10-20_13h06.03.521,Oddball_task,2022.2.5,59.92739197015648,
standard,soundFiles/250Hz_44100Hz_16bit_05sec.wav',None,1000,,,,,27,0,135,3,,,,,652.8651767999982,653.8324237999914,653.832458659992,656.3332141999854,None,1,,,654.8328445999941,,,,,,,,,,,elpida_20_10_23,home_hugin04,2023-10-20_13h06.03.521,Oddball_task,2022.2.5,59.92739197015648,
target,soundFiles/1200Hz_-3dBFS_3s_44.1kHz.wav',t,2000,,,,,27,1,136,4,,,,,656.3505342999997,657.3338923999981,657.3339570599928,659.8351725999964,t,1,,0.7210759999870788,,,,,,,,,,,,elpida_20_10_23,home_hugin04,2023-10-20_13h06.03.521,Oddball_task,2022.2.5,59.92739197015648,
standard,soundFiles/250Hz_44100Hz_16bit_05sec.wav',None,1000,,,,,27,2,137,0,,,,,659.8517015999823,660.8354510999925,660.8357746600086,663.3360259000037,None,1,,,,,,,,,,,,,,elpida_20_10_23,home_hugin04,2023-10-20_13h06.03.521,Oddball_task,2022.2.5,59.92739197015648,
standard,soundFiles/250Hz_44100Hz_16bit_05sec.wav',None,1000,,,,,27,3,138,2,,,,,663.3525997999823,664.3382932000095,664.3365504600079,666.8379427999898,None,1,,,,,,,,,,,,,,elpida_20_10_23,home_hugin04,2023-10-20_13h06.03.521,Oddball_task,2022.2.5,59.92739197015648,
standard,soundFiles/250Hz_44100Hz_16bit_05sec.wav',None,1000,,,,,27,4,139,1,,,,,666.8544643000059,667.8385170999973,667.8385101599997,670.3394141999888,None,1,,,,,,,,,,,,,,elpida_20_10_23,home_hugin04,2023-10-20_13h06.03.521,Oddball_task,2022.2.5,59.92739197015648,
standard,soundFiles/250Hz_44100Hz_16bit_05sec.wav',None,1000,,,,,28,0,140,1,,,,,670.3563196999894,671.3398225999845,671.340374359992,673.8416454999824,None,1,,,,,,,,,,,,,,elpida_20_10_23,home_hugin04,2023-10-20_13h06.03.521,Oddball_task,2022.2.5,59.92739197015648,
standard,soundFiles/250Hz_44100Hz_16bit_05sec.wav',None,1000,,,,,28,1,141,3,,,,,673.8608984999883,674.8413621000072,674.8415915600053,677.3431109999947,None,1,,,,,,,,,,,,,,elpida_20_10_23,home_hugin04,2023-10-20_13h06.03.521,Oddball_task,2022.2.5,59.92739197015648,
target,soundFiles/1200Hz_-3dBFS_3s_44.1kHz.wav',t,2000,,,,,28,2,142,4,,,,,677.3592788999958,678.3453833000094,678.342998860011,,t,1,,0.6080821999930777,,,,,,,,,,,,elpida_20_10_23,home_hugin04,2023-10-20_13h06.03.521,Oddball_task,2022.2.5,59.92739197015648,
standard,soundFiles/250Hz_44100Hz_16bit_05sec.wav',None,1000,,,,,28,3,143,2,,,,,680.8603072999977,681.8450933999848,681.8438225599966,684.3475732000079,None,1,,,682.8443030999915,,,,,,,,,,,elpida_20_10_23,home_hugin04,2023-10-20_13h06.03.521,Oddball_task,2022.2.5,59.92739197015648,
standard,soundFiles/250Hz_44100Hz_16bit_05sec.wav',None,1000,,,,,28,4,144,0,,,,,684.3624090999947,685.3457563999982,685.3455759599892,687.8475856999867,None,1,,,,,,,,,,,,,,elpida_20_10_23,home_hugin04,2023-10-20_13h06.03.521,Oddball_task,2022.2.5,59.92739197015648,
standard,soundFiles/250Hz_44100Hz_16bit_05sec.wav',None,1000,,,,,29,0,145,3,,,,,687.8634436999855,688.8303798999987,688.8325820600003,691.3321593999863,None,1,,,,,,,,,,,,,,elpida_20_10_23,home_hugin04,2023-10-20_13h06.03.521,Oddball_task,2022.2.5,59.92739197015648,
target,soundFiles/1200Hz_-3dBFS_3s_44.1kHz.wav',t,2000,,,,,29,1,146,4,,,,,691.365120100003,692.3322692000074,692.332287059995,694.8333389000036,t,1,,0.7001820000004955,,,,,,,,,,,,elpida_20_10_23,home_hugin04,2023-10-20_13h06.03.521,Oddball_task,2022.2.5,59.92739197015648,
standard,soundFiles/250Hz_44100Hz_16bit_05sec.wav',None,1000,,,,,29,2,147,0,,,,,694.8496950999834,695.8334756999975,695.8335500600078,698.3357945999887,None,1,,,696.8336564000056,,,,,,,,,,,elpida_20_10_23,home_hugin04,2023-10-20_13h06.03.521,Oddball_task,2022.2.5,59.92739197015648,
standard,soundFiles/250Hz_44100Hz_16bit_05sec.wav',None,1000,,,,,29,3,148,2,,,,,698.3515086999978,699.3352673999907,699.3354319599894,701.8359505999833,None,1,,,,,,,,,,,,,,elpida_20_10_23,home_hugin04,2023-10-20_13h06.03.521,Oddball_task,2022.2.5,59.92739197015648,
standard,soundFiles/250Hz_44100Hz_16bit_05sec.wav',None,1000,,,,,29,4,149,1,,,,,701.8530020999897,702.8368384999922,702.8367318599921,705.3378667999932,None,1,,,,,,,,,,,,,,elpida_20_10_23,home_hugin04,2023-10-20_13h06.03.521,Oddball_task,2022.2.5,59.92739197015648,
standard,soundFiles/250Hz_44100Hz_16bit_05sec.wav',None,1000,,,,,30,0,150,2,,,,,705.3542117000034,706.3382721999951,706.3380898600008,708.8390708999941,None,1,,,,,,,,,,,,,,elpida_20_10_23,home_hugin04,2023-10-20_13h06.03.521,Oddball_task,2022.2.5,59.92739197015648,
standard,soundFiles/250Hz_44100Hz_16bit_05sec.wav',None,1000,,,,,30,1,151,3,,,,,708.8558630000043,709.8392203999974,709.8395776600082,712.3422184000083,None,1,,,,,,,,,,,,,,elpida_20_10_23,home_hugin04,2023-10-20_13h06.03.521,Oddball_task,2022.2.5,59.92739197015648,
standard,soundFiles/250Hz_44100Hz_16bit_05sec.wav',None,1000,,,,,30,2,152,0,,,,,712.3576268999896,713.3408277999843,713.3411782600015,715.842183300003,None,1,,,,,,,,,,,,,,elpida_20_10_23,home_hugin04,2023-10-20_13h06.03.521,Oddball_task,2022.2.5,59.92739197015648,
standard,soundFiles/250Hz_44100Hz_16bit_05sec.wav',None,1000,,,,,30,3,153,1,,,,,715.8582674000063,716.8425190999988,716.8424216600106,719.3442494999908,None,1,,,,,,,,,,,,,,elpida_20_10_23,home_hugin04,2023-10-20_13h06.03.521,Oddball_task,2022.2.5,59.92739197015648,
target,soundFiles/1200Hz_-3dBFS_3s_44.1kHz.wav',t,2000,,,,,30,4,154,4,,,,,719.3608642999898,720.3443728999991,720.3442461599916,722.8449246000091,t,1,,0.6788881000247784,,,,,,,,,,,,elpida_20_10_23,home_hugin04,2023-10-20_13h06.03.521,Oddball_task,2022.2.5,59.92739197015648,
standard,soundFiles/250Hz_44100Hz_16bit_05sec.wav',None,1000,,,,,31,0,155,0,,,,,722.8616118000064,723.8475675999944,723.8457031599974,726.3467408999859,None,1,,,,,,,,,,,,,,elpida_20_10_23,home_hugin04,2023-10-20_13h06.03.521,Oddball_task,2022.2.5,59.92739197015648,
standard,soundFiles/250Hz_44100Hz_16bit_05sec.wav',None,1000,,,,,31,1,156,2,,,,,726.3637239999953,727.3472214000067,727.3477111600077,,None,1,,,,,,,,,,,,,,elpida_20_10_23,home_hugin04,2023-10-20_13h06.03.521,Oddball_task,2022.2.5,59.92739197015648,
target,soundFiles/1200Hz_-3dBFS_3s_44.1kHz.wav',t,2000,,,,,31,2,157,4,,,,,729.8479721999902,730.8319656999956,730.8319208600005,733.3330600000045,t,1,,0.7553101000085007,,,,,,,,,,,,elpida_20_10_23,home_hugin04,2023-10-20_13h06.03.521,Oddball_task,2022.2.5,59.92739197015648,
standard,soundFiles/250Hz_44100Hz_16bit_05sec.wav',None,1000,,,,,31,3,158,3,,,,,733.3494438999915,734.3336053999956,734.3343227599835,736.8349545999954,None,1,,,,,,,,,,,,,,elpida_20_10_23,home_hugin04,2023-10-20_13h06.03.521,Oddball_task,2022.2.5,59.92739197015648,
standard,soundFiles/250Hz_44100Hz_16bit_05sec.wav',None,1000,,,,,31,4,159,1,,,,,736.8510524999874,737.8359286999912,737.8347753599955,740.3361892999965,None,1,,,738.8352769000048,,,,,,,,,,,elpida_20_10_23,home_hugin04,2023-10-20_13h06.03.521,Oddball_task,2022.2.5,59.92739197015648,
standard,soundFiles/250Hz_44100Hz_16bit_05sec.wav',None,1000,,,,,32,0,160,2,,,,,740.352498399996,741.3373426999897,741.3365327599895,743.8373181000061,None,1,,,,,,,,,,,,,,elpida_20_10_23,home_hugin04,2023-10-20_13h06.03.521,Oddball_task,2022.2.5,59.92739197015648,
standard,soundFiles/250Hz_44100Hz_16bit_05sec.wav',None,1000,,,,,32,1,161,0,,,,,743.8541190999968,744.837688700005,744.8380821600003,747.3387273999979,None,1,,,745.8382086000056,,,,,,,,,,,elpida_20_10_23,home_hugin04,2023-10-20_13h06.03.521,Oddball_task,2022.2.5,59.92739197015648,
standard,soundFiles/250Hz_44100Hz_16bit_05sec.wav',None,1000,,,,,32,2,162,3,,,,,747.3553281000059,748.3402050999866,748.3392962599901,750.8407550999837,None,1,,,,,,,,,,,,,,elpida_20_10_23,home_hugin04,2023-10-20_13h06.03.521,Oddball_task,2022.2.5,59.92739197015648,
target,soundFiles/1200Hz_-3dBFS_3s_44.1kHz.wav',t,2000,,,,,32,3,163,4,,,,,750.8571047000005,751.842144299997,751.841268359989,754.3418957999966,t,1,,0.8316098999930546,,,,,,,,,,,,elpida_20_10_23,home_hugin04,2023-10-20_13h06.03.521,Oddball_task,2022.2.5,59.92739197015648,
standard,soundFiles/250Hz_44100Hz_16bit_05sec.wav',None,1000,,,,,32,4,164,1,,,,,754.358333399985,755.3422863000014,755.342044259989,757.8432853999839,None,1,,,,,,,,,,,,,,elpida_20_10_23,home_hugin04,2023-10-20_13h06.03.521,Oddball_task,2022.2.5,59.92739197015648,
standard,soundFiles/250Hz_44100Hz_16bit_05sec.wav',None,1000,,,,,33,0,165,3,,,,,757.859660999995,758.8438033999992,758.8438092600118,761.3449516999826,None,1,,,,,,,,,,,,,,elpida_20_10_23,home_hugin04,2023-10-20_13h06.03.521,Oddball_task,2022.2.5,59.92739197015648,
standard,soundFiles/250Hz_44100Hz_16bit_05sec.wav',None,1000,,,,,33,1,166,0,,,,,761.3622257999959,762.3453130999987,762.3458299600024,764.8461225999927,None,1,,,,,,,,,,,,,,elpida_20_10_23,home_hugin04,2023-10-20_13h06.03.521,Oddball_task,2022.2.5,59.92739197015648,
standard,soundFiles/250Hz_44100Hz_16bit_05sec.wav',None,1000,,,,,33,2,167,1,,,,,764.8634242999833,765.8465915999841,765.8471811599884,768.3483986000065,None,1,,,,,,,,,,,,,,elpida_20_10_23,home_hugin04,2023-10-20_13h06.03.521,Oddball_task,2022.2.5,59.92739197015648,
standard,soundFiles/250Hz_44100Hz_16bit_05sec.wav',None,1000,,,,,33,3,168,2,,,,,768.36451330001,769.348247899994,769.3488120600086,771.849123699998,None,1,,,770.3484573999885,,,,,,,,,,,elpida_20_10_23,home_hugin04,2023-10-20_13h06.03.521,Oddball_task,2022.2.5,59.92739197015648,
target,soundFiles/1200Hz_-3dBFS_3s_44.1kHz.wav',t,2000,,,,,33,4,169,4,,,,,771.8675696999999,772.8329950000043,772.8328979599901,775.3342776999925,t,1,,0.7354297999991104,,,,,,,,,,,,elpida_20_10_23,home_hugin04,2023-10-20_13h06.03.521,Oddball_task,2022.2.5,59.92739197015648,
target,soundFiles/1200Hz_-3dBFS_3s_44.1kHz.wav',t,2000,,,,,34,0,170,4,,,,,775.3507943000004,776.336410399992,776.3351586600038,,t,1,,0.9088695000100415,777.3346997000044,,,,,,,,,,,elpida_20_10_23,home_hugin04,2023-10-20_13h06.03.521,Oddball_task,2022.2.5,59.92739197015648,
standard,soundFiles/250Hz_44100Hz_16bit_05sec.wav',None,1000,,,,,34,1,171,3,,,,,778.852229799988,779.8357506000029,779.836669360011,782.337614899996,None,1,,,,,,,,,,,,,,elpida_20_10_23,home_hugin04,2023-10-20_13h06.03.521,Oddball_task,2022.2.5,59.92739197015648,
standard,soundFiles/250Hz_44100Hz_16bit_05sec.wav',None,1000,,,,,34,2,172,0,,,,,782.3536300999986,783.3371517999913,783.3387955599901,785.8381609999924,None,1,,,,,,,,,,,,,,elpida_20_10_23,home_hugin04,2023-10-20_13h06.03.521,Oddball_task,2022.2.5,59.92739197015648,
standard,soundFiles/250Hz_44100Hz_16bit_05sec.wav',None,1000,,,,,34,3,173,2,,,,,785.8560556999873,786.8389274000074,786.8393274599948,789.3400143999897,None,1,,,,,,,,,,,,,,elpida_20_10_23,home_hugin04,2023-10-20_13h06.03.521,Oddball_task,2022.2.5,59.92739197015648,
standard,soundFiles/250Hz_44100Hz_16bit_05sec.wav',None,1000,,,,,34,4,174,1,,,,,789.3565367999836,790.3407843000023,790.3408089599834,792.8415307000105,None,1,,,,,,,,,,,,,,elpida_20_10_23,home_hugin04,2023-10-20_13h06.03.521,Oddball_task,2022.2.5,59.92739197015648,
standard,soundFiles/250Hz_44100Hz_16bit_05sec.wav',None,1000,,,,,35,0,175,0,,,,,792.8585935999872,793.8424330999842,793.8423232599889,796.3427239999874,None,1,,,,,,,,,,,,,,elpida_20_10_23,home_hugin04,2023-10-20_13h06.03.521,Oddball_task,2022.2.5,59.92739197015648,
standard,soundFiles/250Hz_44100Hz_16bit_05sec.wav',None,1000,,,,,35,1,176,1,,,,,796.3591435999842,797.3447997999901,797.3440787599975,799.8446011999913,None,1,,,,,,,,,,,,,,elpida_20_10_23,home_hugin04,2023-10-20_13h06.03.521,Oddball_task,2022.2.5,59.92739197015648,
standard,soundFiles/250Hz_44100Hz_16bit_05sec.wav',None,1000,,,,,35,2,177,3,,,,,799.8611407999997,800.8450330999913,800.8450929600076,803.3463150000025,None,1,,,,,,,,,,,,,,elpida_20_10_23,home_hugin04,2023-10-20_13h06.03.521,Oddball_task,2022.2.5,59.92739197015648,
standard,soundFiles/250Hz_44100Hz_16bit_05sec.wav',None,1000,,,,,35,3,178,2,,,,,803.3626790999842,804.346762000001,804.3473381599906,806.8476168999914,None,1,,,805.347731899994,,,,,,,,,,,elpida_20_10_23,home_hugin04,2023-10-20_13h06.03.521,Oddball_task,2022.2.5,59.92739197015648,
target,soundFiles/1200Hz_-3dBFS_3s_44.1kHz.wav',t,2000,,,,,35,4,179,4,,,,,806.864013399987,807.8473745000083,807.8476162599836,,t,1,,0.7703199000097811,,,,,,,,,,,,elpida_20_10_23,home_hugin04,2023-10-20_13h06.03.521,Oddball_task,2022.2.5,59.92739197015648,
standard,soundFiles/250Hz_44100Hz_16bit_05sec.wav',None,1000,,,,,36,0,180,3,,,,,810.3498904999869,811.3340018999879,811.3329202599853,813.8338670000085,None,1,,,,,,,,,,,,,,elpida_20_10_23,home_hugin04,2023-10-20_13h06.03.521,Oddball_task,2022.2.5,59.92739197015648,
standard,soundFiles/250Hz_44100Hz_16bit_05sec.wav',None,1000,,,,,36,1,181,1,,,,,813.8503798999882,814.8348289999994,814.8341531600017,817.335304999986,None,1,,,,,,,,,,,,,,elpida_20_10_23,home_hugin04,2023-10-20_13h06.03.521,Oddball_task,2022.2.5,59.92739197015648,
target,soundFiles/1200Hz_-3dBFS_3s_44.1kHz.wav',t,2000,,,,,36,2,182,4,,,,,817.3516082999995,818.3354371000023,818.3358301599947,820.836690199998,t,1,,0.9475942999997642,819.3361663999967,,,,,,,,,,,elpida_20_10_23,home_hugin04,2023-10-20_13h06.03.521,Oddball_task,2022.2.5,59.92739197015648,
standard,soundFiles/250Hz_44100Hz_16bit_05sec.wav',None,1000,,,,,36,3,183,2,,,,,820.8535743000102,821.8371367999935,821.8373479599977,824.3378047999868,None,1,,,,,,,,,,,,,,elpida_20_10_23,home_hugin04,2023-10-20_13h06.03.521,Oddball_task,2022.2.5,59.92739197015648,
standard,soundFiles/250Hz_44100Hz_16bit_05sec.wav',None,1000,,,,,36,4,184,0,,,,,824.354416999995,825.338212600007,825.3383076600003,827.8397410000034,None,1,,,,,,,,,,,,,,elpida_20_10_23,home_hugin04,2023-10-20_13h06.03.521,Oddball_task,2022.2.5,59.92739197015648,
standard,soundFiles/250Hz_44100Hz_16bit_05sec.wav',None,1000,,,,,37,0,185,1,,,,,827.8565075999941,828.8398958999896,828.8403910600027,831.340847799991,None,1,,,,,,,,,,,,,,elpida_20_10_23,home_hugin04,2023-10-20_13h06.03.521,Oddball_task,2022.2.5,59.92739197015648,
target,soundFiles/1200Hz_-3dBFS_3s_44.1kHz.wav',t,2000,,,,,37,1,186,4,,,,,831.3577038999938,832.3420120000083,832.3422973599954,834.8429108999844,t,1,,0.7168111999926623,,,,,,,,,,,,elpida_20_10_23,home_hugin04,2023-10-20_13h06.03.521,Oddball_task,2022.2.5,59.92739197015648,
standard,soundFiles/250Hz_44100Hz_16bit_05sec.wav',None,1000,,,,,37,2,187,3,,,,,834.8594924999925,835.8432068999973,835.8434330599994,838.3447906000074,None,1,,,,,,,,,,,,,,elpida_20_10_23,home_hugin04,2023-10-20_13h06.03.521,Oddball_task,2022.2.5,59.92739197015648,
standard,soundFiles/250Hz_44100Hz_16bit_05sec.wav',None,1000,,,,,37,3,188,0,,,,,838.361124499992,839.3446128999931,839.3456007600034,841.8462510000099,None,1,,,,,,,,,,,,,,elpida_20_10_23,home_hugin04,2023-10-20_13h06.03.521,Oddball_task,2022.2.5,59.92739197015648,
standard,soundFiles/250Hz_44100Hz_16bit_05sec.wav',None,1000,,,,,37,4,189,2,,,,,841.8627801999974,842.8473044999992,842.8473444600095,845.3473400000075,None,1,,,,,,,,,,,,,,elpida_20_10_23,home_hugin04,2023-10-20_13h06.03.521,Oddball_task,2022.2.5,59.92739197015648,
standard,soundFiles/250Hz_44100Hz_16bit_05sec.wav',None,1000,,,,,38,0,190,2,,,,,845.3638229999924,846.3473692999978,846.3474317600048,848.8487129999849,None,1,,,,,,,,,,,,,,elpida_20_10_23,home_hugin04,2023-10-20_13h06.03.521,Oddball_task,2022.2.5,59.92739197015648,
standard,soundFiles/250Hz_44100Hz_16bit_05sec.wav',None,1000,,,,,38,1,191,1,,,,,848.8652028999932,849.8326094000076,849.8331753600069,852.3332884999982,None,1,,,,,,,,,,,,,,elpida_20_10_23,home_hugin04,2023-10-20_13h06.03.521,Oddball_task,2022.2.5,59.92739197015648,
standard,soundFiles/250Hz_44100Hz_16bit_05sec.wav',None,1000,,,,,38,2,192,0,,,,,852.3511159000045,853.3349740999984,853.3341243599862,855.8348626999941,None,1,,,,,,,,,,,,,,elpida_20_10_23,home_hugin04,2023-10-20_13h06.03.521,Oddball_task,2022.2.5,59.92739197015648,
target,soundFiles/1200Hz_-3dBFS_3s_44.1kHz.wav',t,2000,,,,,38,3,193,4,,,,,855.8519601000007,856.8355339999835,856.8369753599836,859.3364146999957,t,1,,0.6991258000198286,,,,,,,,,,,,elpida_20_10_23,home_hugin04,2023-10-20_13h06.03.521,Oddball_task,2022.2.5,59.92739197015648,
standard,soundFiles/250Hz_44100Hz_16bit_05sec.wav',None,1000,,,,,38,4,194,3,,,,,859.3528510000033,860.3369931000052,860.336845459984,862.8376543000049,None,1,,,,,,,,,,,,,,elpida_20_10_23,home_hugin04,2023-10-20_13h06.03.521,Oddball_task,2022.2.5,59.92739197015648,
standard,soundFiles/250Hz_44100Hz_16bit_05sec.wav',None,1000,,,,,39,0,195,2,,,,,862.8542185999977,863.8392367000051,863.8383708599868,866.3394015000085,None,1,,,,,,,,,,,,,,elpida_20_10_23,home_hugin04,2023-10-20_13h06.03.521,Oddball_task,2022.2.5,59.92739197015648,
standard,soundFiles/250Hz_44100Hz_16bit_05sec.wav',None,1000,,,,,39,1,196,0,,,,,866.35625479999,867.3407961000048,867.339764260003,869.8414903999947,None,1,,,,,,,,,,,,,,elpida_20_10_23,home_hugin04,2023-10-20_13h06.03.521,Oddball_task,2022.2.5,59.92739197015648,
target,soundFiles/1200Hz_-3dBFS_3s_44.1kHz.wav',t,2000,,,,,39,2,197,4,,,,,869.8581181000045,870.8416400999995,870.8437524599867,873.3427043999836,t,1,,0.7491511999978684,,,,,,,,,,,,elpida_20_10_23,home_hugin04,2023-10-20_13h06.03.521,Oddball_task,2022.2.5,59.92739197015648,
standard,soundFiles/250Hz_44100Hz_16bit_05sec.wav',None,1000,,,,,39,3,198,3,,,,,873.3602007000009,874.3423534999893,874.342856660005,876.8441572999873,None,1,,,,,,,,,,,,,,elpida_20_10_23,home_hugin04,2023-10-20_13h06.03.521,Oddball_task,2022.2.5,59.92739197015648,
standard,soundFiles/250Hz_44100Hz_16bit_05sec.wav',None,1000,,,,,39,4,199,1,,,,,876.8611136999971,877.8439961999829,877.8443028599868,880.3461011000036,None,1,,,,,,,,,,,,,,elpida_20_10_23,home_hugin04,2023-10-20_13h06.03.521,Oddball_task,2022.2.5,59.92739197015648,
standard,soundFiles/250Hz_44100Hz_16bit_05sec.wav',None,1000,,,,,40,0,200,1,,,,,880.3620075999934,881.3458638000011,881.3460485600081,883.8468243000098,None,1,,,,,,,,,,,,,,elpida_20_10_23,home_hugin04,2023-10-20_13h06.03.521,Oddball_task,2022.2.5,59.92739197015648,
target,soundFiles/1200Hz_-3dBFS_3s_44.1kHz.wav',t,2000,,,,,40,1,201,4,,,,,883.8648604000045,884.8472724999883,884.8479478600057,887.3485793999862,t,1,,0.7910469000053126,,,,,,,,,,,,elpida_20_10_23,home_hugin04,2023-10-20_13h06.03.521,Oddball_task,2022.2.5,59.92739197015648,
standard,soundFiles/250Hz_44100Hz_16bit_05sec.wav',None,1000,,,,,40,2,202,2,,,,,887.3655269999872,888.3323854999908,888.3320618599973,890.8364106999943,None,1,,,,,,,,,,,,,,elpida_20_10_23,home_hugin04,2023-10-20_13h06.03.521,Oddball_task,2022.2.5,59.92739197015648,
standard,soundFiles/250Hz_44100Hz_16bit_05sec.wav',None,1000,,,,,40,3,203,3,,,,,890.8515617999947,891.8347083999834,891.834789259985,894.3349090999982,None,1,,,,,,,,,,,,,,elpida_20_10_23,home_hugin04,2023-10-20_13h06.03.521,Oddball_task,2022.2.5,59.92739197015648,
standard,soundFiles/250Hz_44100Hz_16bit_05sec.wav',None,1000,,,,,40,4,204,0,,,,,894.351330799982,895.3350911999878,895.3353765600041,897.8365134999913,None,1,,,,,,,,,,,,,,elpida_20_10_23,home_hugin04,2023-10-20_13h06.03.521,Oddball_task,2022.2.5,59.92739197015648,
standard,soundFiles/250Hz_44100Hz_16bit_05sec.wav',None,1000,,,,,41,0,205,0,,,,,897.8533248000022,898.836706800008,898.836889860002,901.3373910000082,None,1,,,899.8366371000011,,,,,,,,,,,elpida_20_10_23,home_hugin04,2023-10-20_13h06.03.521,Oddball_task,2022.2.5,59.92739197015648,
target,soundFiles/1200Hz_-3dBFS_3s_44.1kHz.wav',t,2000,,,,,41,1,206,4,,,,,901.355422099994,902.3391943000024,902.3380566600099,904.8399764999922,t,1,,0.7310795999947004,,,,,,,,,,,,elpida_20_10_23,home_hugin04,2023-10-20_13h06.03.521,Oddball_task,2022.2.5,59.92739197015648,
standard,soundFiles/250Hz_44100Hz_16bit_05sec.wav',None,1000,,,,,41,2,207,1,,,,,904.8556899999967,905.8395966000098,905.8396023599926,908.3408199999831,None,1,,,906.8401503000059,,,,,,,,,,,elpida_20_10_23,home_hugin04,2023-10-20_13h06.03.521,Oddball_task,2022.2.5,59.92739197015648,
standard,soundFiles/250Hz_44100Hz_16bit_05sec.wav',None,1000,,,,,41,3,208,2,,,,,908.358584600006,909.3412814000039,909.3419035599945,911.8422226999828,None,1,,,,,,,,,,,,,,elpida_20_10_23,home_hugin04,2023-10-20_13h06.03.521,Oddball_task,2022.2.5,59.92739197015648,
standard,soundFiles/250Hz_44100Hz_16bit_05sec.wav',None,1000,,,,,41,4,209,3,,,,,911.8587493000086,912.8429243999999,912.8424938600074,915.3444705999864,None,1,,,,,,,,,,,,,,elpida_20_10_23,home_hugin04,2023-10-20_13h06.03.521,Oddball_task,2022.2.5,59.92739197015648,
standard,soundFiles/250Hz_44100Hz_16bit_05sec.wav',None,1000,,,,,42,0,210,1,,,,,915.360674800002,916.3461496999953,916.3442612599902,918.845402899984,None,1,,,,,,,,,,,,,,elpida_20_10_23,home_hugin04,2023-10-20_13h06.03.521,Oddball_task,2022.2.5,59.92739197015648,
standard,soundFiles/250Hz_44100Hz_16bit_05sec.wav',None,1000,,,,,42,1,211,3,,,,,918.862026799994,919.8453932999982,919.8452463600115,922.3471709000005,None,1,,,,,,,,,,,,,,elpida_20_10_23,home_hugin04,2023-10-20_13h06.03.521,Oddball_task,2022.2.5,59.92739197015648,
target,soundFiles/1200Hz_-3dBFS_3s_44.1kHz.wav',t,2000,,,,,42,2,212,4,,,,,922.3640353000083,923.3486000999983,923.3482939599926,925.8480314000044,t,1,,0.7484612999833189,,,,,,,,,,,,elpida_20_10_23,home_hugin04,2023-10-20_13h06.03.521,Oddball_task,2022.2.5,59.92739197015648,
standard,soundFiles/250Hz_44100Hz_16bit_05sec.wav',None,1000,,,,,42,3,213,2,,,,,925.8651641999895,926.8322962000093,926.8325461599889,929.3328693000076,None,1,,,,,,,,,,,,,,elpida_20_10_23,home_hugin04,2023-10-20_13h06.03.521,Oddball_task,2022.2.5,59.92739197015648,
standard,soundFiles/250Hz_44100Hz_16bit_05sec.wav',None,1000,,,,,42,4,214,0,,,,,929.3491968000017,930.3341618999839,930.333490259989,932.8344427999982,None,1,,,,,,,,,,,,,,elpida_20_10_23,home_hugin04,2023-10-20_13h06.03.521,Oddball_task,2022.2.5,59.92739197015648,
standard,soundFiles/250Hz_44100Hz_16bit_05sec.wav',None,1000,,,,,43,0,215,3,,,,,932.8508349999902,933.8345418999961,933.8346609599976,936.3360454000067,None,1,,,,,,,,,,,,,,elpida_20_10_23,home_hugin04,2023-10-20_13h06.03.521,Oddball_task,2022.2.5,59.92739197015648,
standard,soundFiles/250Hz_44100Hz_16bit_05sec.wav',None,1000,,,,,43,1,216,1,,,,,936.352469400008,937.3364595999883,937.3384087599843,939.8374466999958,None,1,,,,,,,,,,,,,,elpida_20_10_23,home_hugin04,2023-10-20_13h06.03.521,Oddball_task,2022.2.5,59.92739197015648,
target,soundFiles/1200Hz_-3dBFS_3s_44.1kHz.wav',t,2000,,,,,43,2,217,4,,,,,939.8542512999848,940.8377405999927,940.8385630599951,943.3399705000047,t,1,,0.756183699995745,941.8382649999985,,,,,,,,,,,elpida_20_10_23,home_hugin04,2023-10-20_13h06.03.521,Oddball_task,2022.2.5,59.92739197015648,
standard,soundFiles/250Hz_44100Hz_16bit_05sec.wav',None,1000,,,,,43,3,218,0,,,,,943.3568273999845,944.3414258999983,944.3395589600113,946.840758699982,None,1,,,,,,,,,,,,,,elpida_20_10_23,home_hugin04,2023-10-20_13h06.03.521,Oddball_task,2022.2.5,59.92739197015648,
standard,soundFiles/250Hz_44100Hz_16bit_05sec.wav',None,1000,,,,,43,4,219,2,,,,,946.8572623000073,947.8417791999818,947.8412982599839,950.3423354999977,None,1,,,948.84128220001,,,,,,,,,,,elpida_20_10_23,home_hugin04,2023-10-20_13h06.03.521,Oddball_task,2022.2.5,59.92739197015648,
standard,soundFiles/250Hz_44100Hz_16bit_05sec.wav',None,1000,,,,,44,0,220,0,,,,,950.3594415999833,951.343008099997,951.3425256599876,953.8431965000054,None,1,,,,,,,,,,,,,,elpida_20_10_23,home_hugin04,2023-10-20_13h06.03.521,Oddball_task,2022.2.5,59.92739197015648,
standard,soundFiles/250Hz_44100Hz_16bit_05sec.wav',None,1000,,,,,44,1,221,3,,,,,953.8602695000009,954.8434297000058,954.8438056599844,957.3466801999894,None,1,,,,,,,,,,,,,,elpida_20_10_23,home_hugin04,2023-10-20_13h06.03.521,Oddball_task,2022.2.5,59.92739197015648,
standard,soundFiles/250Hz_44100Hz_16bit_05sec.wav',None,1000,,,,,44,2,222,2,,,,,957.3647247999907,958.3449255999876,958.345092360003,960.8466942000086,None,1,,,,,,,,,,,,,,elpida_20_10_23,home_hugin04,2023-10-20_13h06.03.521,Oddball_task,2022.2.5,59.92739197015648,
standard,soundFiles/250Hz_44100Hz_16bit_05sec.wav',None,1000,,,,,44,3,223,1,,,,,960.863150899997,961.8468644999957,961.8473410599836,964.348753600003,None,1,,,,,,,,,,,,,,elpida_20_10_23,home_hugin04,2023-10-20_13h06.03.521,Oddball_task,2022.2.5,59.92739197015648,
target,soundFiles/1200Hz_-3dBFS_3s_44.1kHz.wav',t,2000,,,,,44,4,224,4,,,,,964.365641899989,965.3484711000056,965.3482938599918,,t,1,,0.7038429999956861,,,,,,,,,,,,elpida_20_10_23,home_hugin04,2023-10-20_13h06.03.521,Oddball_task,2022.2.5,59.92739197015648,
standard,soundFiles/250Hz_44100Hz_16bit_05sec.wav',None,1000,,,,,45,0,225,1,,,,,967.8495127999922,968.8332558999828,968.8335133599903,971.334299899987,None,1,,,,,,,,,,,,,,elpida_20_10_23,home_hugin04,2023-10-20_13h06.03.521,Oddball_task,2022.2.5,59.92739197015648,
standard,soundFiles/250Hz_44100Hz_16bit_05sec.wav',None,1000,,,,,45,1,226,3,,,,,971.3527831999818,972.3350681999873,972.3341958600067,974.8354898999969,None,1,,,,,,,,,,,,,,elpida_20_10_23,home_hugin04,2023-10-20_13h06.03.521,Oddball_task,2022.2.5,59.92739197015648,
target,soundFiles/1200Hz_-3dBFS_3s_44.1kHz.wav',t,2000,,,,,45,2,227,4,,,,,974.8523595999868,975.8358380999998,975.8360386600107,978.3373309999879,t,1,,0.8020964000024833,,,,,,,,,,,,elpida_20_10_23,home_hugin04,2023-10-20_13h06.03.521,Oddball_task,2022.2.5,59.92739197015648,
standard,soundFiles/250Hz_44100Hz_16bit_05sec.wav',None,1000,,,,,45,3,228,0,,,,,978.3551305999863,979.3373492000101,979.337196560009,981.838253199996,None,1,,,,,,,,,,,,,,elpida_20_10_23,home_hugin04,2023-10-20_13h06.03.521,Oddball_task,2022.2.5,59.92739197015648,
standard,soundFiles/250Hz_44100Hz_16bit_05sec.wav',None,1000,,,,,45,4,229,2,,,,,981.8547587000066,982.8383816999849,982.838688659991,985.341190200008,None,1,,,,,,,,,,,,,,elpida_20_10_23,home_hugin04,2023-10-20_13h06.03.521,Oddball_task,2022.2.5,59.92739197015648,
standard,soundFiles/250Hz_44100Hz_16bit_05sec.wav',None,1000,,,,,46,0,230,3,,,,,985.3569347999874,986.3406243000063,986.3416153600119,988.8424667000072,None,1,,,,,,,,,,,,,,elpida_20_10_23,home_hugin04,2023-10-20_13h06.03.521,Oddball_task,2022.2.5,59.92739197015648,
standard,soundFiles/250Hz_44100Hz_16bit_05sec.wav',None,1000,,,,,46,1,231,1,,,,,988.8580566000019,989.8438484999933,989.843949260001,992.3434460999852,None,1,,,,,,,,,,,,,,elpida_20_10_23,home_hugin04,2023-10-20_13h06.03.521,Oddball_task,2022.2.5,59.92739197015648,
target,soundFiles/1200Hz_-3dBFS_3s_44.1kHz.wav',t,2000,,,,,46,2,232,4,,,,,992.3603520999895,993.3435638000083,993.3436063600093,995.8451094999909,t,1,,0.805374200019287,,,,,,,,,,,,elpida_20_10_23,home_hugin04,2023-10-20_13h06.03.521,Oddball_task,2022.2.5,59.92739197015648,
standard,soundFiles/250Hz_44100Hz_16bit_05sec.wav',None,1000,,,,,46,3,233,2,,,,,995.8616061999928,996.846066099999,996.8448645599856,999.347040099994,None,1,,,,,,,,,,,,,,elpida_20_10_23,home_hugin04,2023-10-20_13h06.03.521,Oddball_task,2022.2.5,59.92739197015648,
standard,soundFiles/250Hz_44100Hz_16bit_05sec.wav',None,1000,,,,,46,4,234,0,,,,,999.3633487999905,1000.3474179999903,1000.3463785599888,1002.8473354000016,None,1,,,,,,,,,,,,,,elpida_20_10_23,home_hugin04,2023-10-20_13h06.03.521,Oddball_task,2022.2.5,59.92739197015648,
standard,soundFiles/250Hz_44100Hz_16bit_05sec.wav',None,1000,,,,,47,0,235,2,,,,,1002.8647847000102,1003.8476933999918,1003.8476759600017,1006.3498936999822,None,1,,,,,,,,,,,,,,elpida_20_10_23,home_hugin04,2023-10-20_13h06.03.521,Oddball_task,2022.2.5,59.92739197015648,
target,soundFiles/1200Hz_-3dBFS_3s_44.1kHz.wav',t,2000,,,,,47,1,236,4,,,,,1006.3665140999947,1007.3332482999831,1007.3331117599882,1009.8346309000044,t,1,,0.7040930000075605,,,,,,,,,,,,elpida_20_10_23,home_hugin04,2023-10-20_13h06.03.521,Oddball_task,2022.2.5,59.92739197015648,
standard,soundFiles/250Hz_44100Hz_16bit_05sec.wav',None,1000,,,,,47,2,237,3,,,,,1009.8511366999883,1010.8341890999873,1010.834477559998,1013.335493599996,None,1,,,,,,,,,,,,,,elpida_20_10_23,home_hugin04,2023-10-20_13h06.03.521,Oddball_task,2022.2.5,59.92739197015648,
standard,soundFiles/250Hz_44100Hz_16bit_05sec.wav',None,1000,,,,,47,3,238,1,,,,,1013.3530664999853,1014.3362483000092,1014.3367872600065,1016.8368925999966,None,1,,,,,,,,,,,,,,elpida_20_10_23,home_hugin04,2023-10-20_13h06.03.521,Oddball_task,2022.2.5,59.92739197015648,
standard,soundFiles/250Hz_44100Hz_16bit_05sec.wav',None,1000,,,,,47,4,239,0,,,,,1016.8540483999823,1017.8373783999996,1017.8379516599962,1020.3384854999895,None,1,,,,,,,,,,,,,,elpida_20_10_23,home_hugin04,2023-10-20_13h06.03.521,Oddball_task,2022.2.5,59.92739197015648,
standard,soundFiles/250Hz_44100Hz_16bit_05sec.wav',None,1000,,,,,48,0,240,2,,,,,1020.3553266999952,1021.3395921000047,1021.3386677600065,1023.8399986999866,None,1,,,,,,,,,,,,,,elpida_20_10_23,home_hugin04,2023-10-20_13h06.03.521,Oddball_task,2022.2.5,59.92739197015648,
target,soundFiles/1200Hz_-3dBFS_3s_44.1kHz.wav',t,2000,,,,,48,1,241,4,,,,,1023.8561680999992,1024.8405565999856,1024.8404805599857,1027.3417563999828,t,1,,0.7581514999910723,,,,,,,,,,,,elpida_20_10_23,home_hugin04,2023-10-20_13h06.03.521,Oddball_task,2022.2.5,59.92739197015648,
standard,soundFiles/250Hz_44100Hz_16bit_05sec.wav',None,1000,,,,,48,2,242,1,,,,,1027.3598693000094,1028.3414884000085,1028.3416587599932,1030.8435065000085,None,1,,,1029.3425320000097,,,,,,,,,,,elpida_20_10_23,home_hugin04,2023-10-20_13h06.03.521,Oddball_task,2022.2.5,59.92739197015648,
standard,soundFiles/250Hz_44100Hz_16bit_05sec.wav',None,1000,,,,,48,3,243,0,,,,,1030.8593225000077,1031.843123300001,1031.8431945599878,1034.346804300003,None,1,,,,,,,,,,,,,,elpida_20_10_23,home_hugin04,2023-10-20_13h06.03.521,Oddball_task,2022.2.5,59.92739197015648,
standard,soundFiles/250Hz_44100Hz_16bit_05sec.wav',None,1000,,,,,48,4,244,3,,,,,1034.3616005000076,1035.3448083999974,1035.3448746600043,1037.8456785999879,None,1,,,,,,,,,,,,,,elpida_20_10_23,home_hugin04,2023-10-20_13h06.03.521,Oddball_task,2022.2.5,59.92739197015648,
standard,soundFiles/250Hz_44100Hz_16bit_05sec.wav',None,1000,,,,,49,0,245,0,,,,,1037.8634317999822,1038.8466821000038,1038.8473099600087,1041.3474694000033,None,1,,,,,,,,,,,,,,elpida_20_10_23,home_hugin04,2023-10-20_13h06.03.521,Oddball_task,2022.2.5,59.92739197015648,
standard,soundFiles/250Hz_44100Hz_16bit_05sec.wav',None,1000,,,,,49,1,246,3,,,,,1041.364538599999,1042.349518700008,1042.3479013600008,1044.8487089999835,None,1,,,1043.3476162999868,,,,,,,,,,,elpida_20_10_23,home_hugin04,2023-10-20_13h06.03.521,Oddball_task,2022.2.5,59.92739197015648,
standard,soundFiles/250Hz_44100Hz_16bit_05sec.wav',None,1000,,,,,49,2,247,1,,,,,1044.8651725999953,1045.8326467000006,1045.8343955599848,1048.3341515999928,None,1,,,,,,,,,,,,,,elpida_20_10_23,home_hugin04,2023-10-20_13h06.03.521,Oddball_task,2022.2.5,59.92739197015648,
standard,soundFiles/250Hz_44100Hz_16bit_05sec.wav',None,1000,,,,,49,3,248,2,,,,,1048.3507448000018,1049.3335533000063,1049.3335228600045,1051.8351687999966,None,1,,,,,,,,,,,,,,elpida_20_10_23,home_hugin04,2023-10-20_13h06.03.521,Oddball_task,2022.2.5,59.92739197015648,
target,soundFiles/1200Hz_-3dBFS_3s_44.1kHz.wav',t,2000,,,,,49,4,249,4,,,,,1051.851763899991,1052.8351853000058,1052.835517059997,1055.3380277999968,t,1,,0.8918631999986246,,,,,,,,,,,,elpida_20_10_23,home_hugin04,2023-10-20_13h06.03.521,Oddball_task,2022.2.5,59.92739197015648,
standard,soundFiles/250Hz_44100Hz_16bit_05sec.wav',None,1000,,,,,50,0,250,1,,,,,1055.3535607999947,1056.3368880999915,1056.3369713600114,1058.8389198000077,None,1,,,,,,,,,,,,,,elpida_20_10_23,home_hugin04,2023-10-20_13h06.03.521,Oddball_task,2022.2.5,59.92739197015648,
standard,soundFiles/250Hz_44100Hz_16bit_05sec.wav',None,1000,,,,,50,1,251,3,,,,,1058.8555437999894,1059.8386514000013,1059.8387137600075,1062.3395833999966,None,1,,,,,,,,,,,,,,elpida_20_10_23,home_hugin04,2023-10-20_13h06.03.521,Oddball_task,2022.2.5,59.92739197015648,
standard,soundFiles/250Hz_44100Hz_16bit_05sec.wav',None,1000,,,,,50,2,252,2,,,,,1062.3564187999873,1063.3428127999941,1063.3400515600079,,None,1,,,,,,,,,,,,,,elpida_20_10_23,home_hugin04,2023-10-20_13h06.03.521,Oddball_task,2022.2.5,59.92739197015648,
target,soundFiles/1200Hz_-3dBFS_3s_44.1kHz.wav',t,2000,,,,,50,3,253,4,,,,,1065.8574663999898,1066.8410377999826,1066.8410488600057,1069.3424218999862,t,1,,0.955507700011367,,,,,,,,,,,,elpida_20_10_23,home_hugin04,2023-10-20_13h06.03.521,Oddball_task,2022.2.5,59.92739197015648,
standard,soundFiles/250Hz_44100Hz_16bit_05sec.wav',None,1000,,,,,50,4,254,0,,,,,1069.3603421000007,1070.3451426999818,1070.3428414600057,1072.8441257000086,None,1,,,,,,,,,,,,,,elpida_20_10_23,home_hugin04,2023-10-20_13h06.03.521,Oddball_task,2022.2.5,59.92739197015648,
standard,soundFiles/250Hz_44100Hz_16bit_05sec.wav',None,1000,,,,,51,0,255,2,,,,,1072.8606344999862,1073.8448073999898,1073.844417559987,1076.3454813999997,None,1,,,,,,,,,,,,,,elpida_20_10_23,home_hugin04,2023-10-20_13h06.03.521,Oddball_task,2022.2.5,59.92739197015648,
standard,soundFiles/250Hz_44100Hz_16bit_05sec.wav',None,1000,,,,,51,1,256,3,,,,,1076.3629342000058,1077.3468542000046,1077.3466899600025,1079.8479636999837,None,1,,,,,,,,,,,,,,elpida_20_10_23,home_hugin04,2023-10-20_13h06.03.521,Oddball_task,2022.2.5,59.92739197015648,
target,soundFiles/1200Hz_-3dBFS_3s_44.1kHz.wav',t,2000,,,,,51,2,257,4,,,,,1079.8640461000032,1080.830855999986,1080.831980359988,1083.3327212999866,t,1,,0.7498057999764569,1081.8313240999996,,,,,,,,,,,elpida_20_10_23,home_hugin04,2023-10-20_13h06.03.521,Oddball_task,2022.2.5,59.92739197015648,
standard,soundFiles/250Hz_44100Hz_16bit_05sec.wav',None,1000,,,,,51,3,258,0,,,,,1083.365945700003,1084.3321720999957,1084.3318822599977,1086.8333986999933,None,1,,,1085.3325498999911,,,,,,,,,,,elpida_20_10_23,home_hugin04,2023-10-20_13h06.03.521,Oddball_task,2022.2.5,59.92739197015648,
standard,soundFiles/250Hz_44100Hz_16bit_05sec.wav',None,1000,,,,,51,4,259,1,,,,,1086.8498853000056,1087.834512100002,1087.8338188599882,1090.3348944000027,None,1,,,,,,,,,,,,,,elpida_20_10_23,home_hugin04,2023-10-20_13h06.03.521,Oddball_task,2022.2.5,59.92739197015648,
standard,soundFiles/250Hz_44100Hz_16bit_05sec.wav',None,1000,,,,,52,0,260,0,,,,,1090.3524037000025,1091.3354803999828,1091.3354653600109,1093.8364334999933,None,1,,,,,,,,,,,,,,elpida_20_10_23,home_hugin04,2023-10-20_13h06.03.521,Oddball_task,2022.2.5,59.92739197015648,
standard,soundFiles/250Hz_44100Hz_16bit_05sec.wav',None,1000,,,,,52,1,261,3,,,,,1093.8528421999945,1094.8369423999975,1094.837213959996,1097.338240699988,None,1,,,,,,,,,,,,,,elpida_20_10_23,home_hugin04,2023-10-20_13h06.03.521,Oddball_task,2022.2.5,59.92739197015648,
standard,soundFiles/250Hz_44100Hz_16bit_05sec.wav',None,1000,,,,,52,2,262,1,,,,,1097.3549621999846,1098.3389381000015,1098.33807315999,1100.8391154999845,None,1,,,,,,,,,,,,,,elpida_20_10_23,home_hugin04,2023-10-20_13h06.03.521,Oddball_task,2022.2.5,59.92739197015648,
standard,soundFiles/250Hz_44100Hz_16bit_05sec.wav',None,1000,,,,,52,3,263,2,,,,,1100.8563490000088,1101.839757699985,1101.839826859985,1104.3406824999838,None,1,,,,,,,,,,,,,,elpida_20_10_23,home_hugin04,2023-10-20_13h06.03.521,Oddball_task,2022.2.5,59.92739197015648,
target,soundFiles/1200Hz_-3dBFS_3s_44.1kHz.wav',t,2000,,,,,52,4,264,4,,,,,1104.357688499993,1105.342057700007,1105.3422918600118,1107.8418122000003,t,1,,0.7550852999847848,,,,,,,,,,,,elpida_20_10_23,home_hugin04,2023-10-20_13h06.03.521,Oddball_task,2022.2.5,59.92739197015648,
standard,soundFiles/250Hz_44100Hz_16bit_05sec.wav',None,1000,,,,,53,0,265,2,,,,,1107.859710299992,1108.8431487999915,1108.843787959995,1111.343533599982,None,1,,,,,,,,,,,,,,elpida_20_10_23,home_hugin04,2023-10-20_13h06.03.521,Oddball_task,2022.2.5,59.92739197015648,
standard,soundFiles/250Hz_44100Hz_16bit_05sec.wav',None,1000,,,,,53,1,266,0,,,,,1111.3608509000042,1112.344769599993,1112.3440347600117,1114.8456645999977,None,1,,,,,,,,,,,,,,elpida_20_10_23,home_hugin04,2023-10-20_13h06.03.521,Oddball_task,2022.2.5,59.92739197015648,
standard,soundFiles/250Hz_44100Hz_16bit_05sec.wav',None,1000,,,,,53,2,267,1,,,,,1114.862017699983,1115.8456380999996,1115.8459114600118,1118.3478636000073,None,1,,,,,,,,,,,,,,elpida_20_10_23,home_hugin04,2023-10-20_13h06.03.521,Oddball_task,2022.2.5,59.92739197015648,
standard,soundFiles/250Hz_44100Hz_16bit_05sec.wav',None,1000,,,,,53,3,268,3,,,,,1118.3636369000014,1119.3319274999958,1119.3324225600081,1121.8316945999977,None,1,,,,,,,,,,,,,,elpida_20_10_23,home_hugin04,2023-10-20_13h06.03.521,Oddball_task,2022.2.5,59.92739197015648,
target,soundFiles/1200Hz_-3dBFS_3s_44.1kHz.wav',t,2000,,,,,53,4,269,4,,,,,1121.8650178000098,1122.8322583999834,1122.8322235600062,1125.3333072999958,t,1,,0.7283258000097703,,,,,,,,,,,,elpida_20_10_23,home_hugin04,2023-10-20_13h06.03.521,Oddball_task,2022.2.5,59.92739197015648,
standard,soundFiles/250Hz_44100Hz_16bit_05sec.wav',None,1000,,,,,54,0,270,2,,,,,1125.35078790001,1126.3341574000078,1126.3342312599852,1128.8351065999886,None,1,,,,,,,,,,,,,,elpida_20_10_23,home_hugin04,2023-10-20_13h06.03.521,Oddball_task,2022.2.5,59.92739197015648,
standard,soundFiles/250Hz_44100Hz_16bit_05sec.wav',None,1000,,,,,54,1,271,3,,,,,1128.851825299993,1129.8354808999866,1129.834877959991,1132.3360214999993,None,1,,,,,,,,,,,,,,elpida_20_10_23,home_hugin04,2023-10-20_13h06.03.521,Oddball_task,2022.2.5,59.92739197015648,
standard,soundFiles/250Hz_44100Hz_16bit_05sec.wav',None,1000,,,,,54,2,272,0,,,,,1132.3530833999976,1133.3362777000002,1133.3366601599992,1135.8372447000002,None,1,,,,,,,,,,,,,,elpida_20_10_23,home_hugin04,2023-10-20_13h06.03.521,Oddball_task,2022.2.5,59.92739197015648,
standard,soundFiles/250Hz_44100Hz_16bit_05sec.wav',None,1000,,,,,54,3,273,1,,,,,1135.8539870000095,1136.8388953999965,1136.8379685600084,1139.3391270999855,None,1,,,,,,,,,,,,,,elpida_20_10_23,home_hugin04,2023-10-20_13h06.03.521,Oddball_task,2022.2.5,59.92739197015648,
target,soundFiles/1200Hz_-3dBFS_3s_44.1kHz.wav',t,2000,,,,,54,4,274,4,,,,,1139.3562303000072,1140.3392407000065,1140.3392987600091,1142.842953799991,t,1,,0.7568572000018321,,,,,,,,,,,,elpida_20_10_23,home_hugin04,2023-10-20_13h06.03.521,Oddball_task,2022.2.5,59.92739197015648,
standard,soundFiles/250Hz_44100Hz_16bit_05sec.wav',None,1000,,,,,55,0,275,2,,,,,1142.8573620000097,1143.8409878000093,1143.841200859999,1146.3422531999822,None,1,,,,,,,,,,,,,,elpida_20_10_23,home_hugin04,2023-10-20_13h06.03.521,Oddball_task,2022.2.5,59.92739197015648,
standard,soundFiles/250Hz_44100Hz_16bit_05sec.wav',None,1000,,,,,55,1,276,1,,,,,1146.3594367000042,1147.3424444999837,1147.343190259984,1149.8437977999856,None,1,,,,,,,,,,,,,,elpida_20_10_23,home_hugin04,2023-10-20_13h06.03.521,Oddball_task,2022.2.5,59.92739197015648,
standard,soundFiles/250Hz_44100Hz_16bit_05sec.wav',None,1000,,,,,55,2,277,3,,,,,1149.8602506000025,1150.8444445999921,1150.843858860011,1153.3456375999958,None,1,,,1151.8442615999957,,,,,,,,,,,elpida_20_10_23,home_hugin04,2023-10-20_13h06.03.521,Oddball_task,2022.2.5,59.92739197015648,
target,soundFiles/1200Hz_-3dBFS_3s_44.1kHz.wav',t,2000,,,,,55,3,278,4,,,,,1153.3627892000077,1154.3459004999895,1154.3454933600005,1156.846468600008,t,1,,0.7269374000024982,,,,,,,,,,,,elpida_20_10_23,home_hugin04,2023-10-20_13h06.03.521,Oddball_task,2022.2.5,59.92739197015648,
standard,soundFiles/250Hz_44100Hz_16bit_05sec.wav',None,1000,,,,,55,4,279,0,,,,,1156.8633355000056,1157.8466473000008,1157.8467418599903,1160.3484889999963,None,1,,,,,,,,,,,,,,elpida_20_10_23,home_hugin04,2023-10-20_13h06.03.521,Oddball_task,2022.2.5,59.92739197015648,
standard,soundFiles/250Hz_44100Hz_16bit_05sec.wav',None,1000,,,,,56,0,280,2,,,,,1160.366073799989,1161.3322704999882,1161.3319101600064,1163.833126499987,None,1,,,,,,,,,,,,,,elpida_20_10_23,home_hugin04,2023-10-20_13h06.03.521,Oddball_task,2022.2.5,59.92739197015648,
standard,soundFiles/250Hz_44100Hz_16bit_05sec.wav',None,1000,,,,,56,1,281,3,,,,,1163.8495094999962,1164.8338844999962,1164.8332352599973,1167.334223999991,None,1,,,1165.8338515000069,,,,,,,,,,,elpida_20_10_23,home_hugin04,2023-10-20_13h06.03.521,Oddball_task,2022.2.5,59.92739197015648,
standard,soundFiles/250Hz_44100Hz_16bit_05sec.wav',None,1000,,,,,56,2,282,0,,,,,1167.351073800004,1168.3352124000085,1168.3350102600089,1170.835578600003,None,1,,,,,,,,,,,,,,elpida_20_10_23,home_hugin04,2023-10-20_13h06.03.521,Oddball_task,2022.2.5,59.92739197015648,
standard,soundFiles/250Hz_44100Hz_16bit_05sec.wav',None,1000,,,,,56,3,283,1,,,,,1170.8532585999928,1171.8360088999907,1171.8364199600037,1174.337304399989,None,1,,,,,,,,,,,,,,elpida_20_10_23,home_hugin04,2023-10-20_13h06.03.521,Oddball_task,2022.2.5,59.92739197015648,
target,soundFiles/1200Hz_-3dBFS_3s_44.1kHz.wav',t,2000,,,,,56,4,284,4,,,,,1174.3537774999859,1175.34014439999,1175.3375338599872,1177.8388153999986,t,1,,0.7947155000001658,,,,,,,,,,,,elpida_20_10_23,home_hugin04,2023-10-20_13h06.03.521,Oddball_task,2022.2.5,59.92739197015648,
standard,soundFiles/250Hz_44100Hz_16bit_05sec.wav',None,1000,,,,,57,0,285,0,,,,,1177.8559314000013,1178.8394361999817,1178.8392700599943,1181.3403410000028,None,1,,,,,,,,,,,,,,elpida_20_10_23,home_hugin04,2023-10-20_13h06.03.521,Oddball_task,2022.2.5,59.92739197015648,
standard,soundFiles/250Hz_44100Hz_16bit_05sec.wav',None,1000,,,,,57,1,286,2,,,,,1181.3577242000028,1182.3413632999873,1182.3411155599897,1184.842635100009,None,1,,,,,,,,,,,,,,elpida_20_10_23,home_hugin04,2023-10-20_13h06.03.521,Oddball_task,2022.2.5,59.92739197015648,
target,soundFiles/1200Hz_-3dBFS_3s_44.1kHz.wav',t,2000,,,,,57,2,287,4,,,,,1184.8585750999919,1185.8418029999884,1185.8424983599834,1188.3436605999887,t,1,,0.7393463999906089,,,,,,,,,,,,elpida_20_10_23,home_hugin04,2023-10-20_13h06.03.521,Oddball_task,2022.2.5,59.92739197015648,
standard,soundFiles/250Hz_44100Hz_16bit_05sec.wav',None,1000,,,,,57,3,288,1,,,,,1188.3602570999938,1189.3453091999982,1189.344332260007,1191.844850399997,None,1,,,,,,,,,,,,,,elpida_20_10_23,home_hugin04,2023-10-20_13h06.03.521,Oddball_task,2022.2.5,59.92739197015648,
standard,soundFiles/250Hz_44100Hz_16bit_05sec.wav',None,1000,,,,,57,4,289,3,,,,,1191.8620293999847,1192.8452067000035,1192.8453332600038,1195.3463128999865,None,1,,,,,,,,,,,,,,elpida_20_10_23,home_hugin04,2023-10-20_13h06.03.521,Oddball_task,2022.2.5,59.92739197015648,
standard,soundFiles/250Hz_44100Hz_16bit_05sec.wav',None,1000,,,,,58,0,290,3,,,,,1195.3632557000092,1196.346604499995,1196.3465155599843,1198.8473030999885,None,1,,,,,,,,,,,,,,elpida_20_10_23,home_hugin04,2023-10-20_13h06.03.521,Oddball_task,2022.2.5,59.92739197015648,
standard,soundFiles/250Hz_44100Hz_16bit_05sec.wav',None,1000,,,,,58,1,291,1,,,,,1198.8641496000055,1199.8481575000042,1199.8485816600005,1202.351988599985,None,1,,,1200.8481891999836,,,,,,,,,,,elpida_20_10_23,home_hugin04,2023-10-20_13h06.03.521,Oddball_task,2022.2.5,59.92739197015648,
target,soundFiles/1200Hz_-3dBFS_3s_44.1kHz.wav',t,2000,,,,,58,2,292,4,,,,,1202.3660388999851,1203.3329916000075,1203.3329689600068,1205.8344350999978,t,1,,0.773934900003951,,,,,,,,,,,,elpida_20_10_23,home_hugin04,2023-10-20_13h06.03.521,Oddball_task,2022.2.5,59.92739197015648,
standard,soundFiles/250Hz_44100Hz_16bit_05sec.wav',None,1000,,,,,58,3,293,2,,,,,1205.8506635999947,1206.8346432999824,1206.8352320600097,1209.3355601000076,None,1,,,,,,,,,,,,,,elpida_20_10_23,home_hugin04,2023-10-20_13h06.03.521,Oddball_task,2022.2.5,59.92739197015648,
standard,soundFiles/250Hz_44100Hz_16bit_05sec.wav',None,1000,,,,,58,4,294,0,,,,,1209.3528746000084,1210.3352464000054,1210.3355035600107,1212.8369120999996,None,1,,,,,,,,,,,,,,elpida_20_10_23,home_hugin04,2023-10-20_13h06.03.521,Oddball_task,2022.2.5,59.92739197015648,
standard,soundFiles/250Hz_44100Hz_16bit_05sec.wav',None,1000,,,,,59,0,295,3,,,,,1212.8540197999973,1213.8394205000077,1213.8372155600082,,None,1,,,,,,,,,,,,,,elpida_20_10_23,home_hugin04,2023-10-20_13h06.03.521,Oddball_task,2022.2.5,59.92739197015648,
standard,soundFiles/250Hz_44100Hz_16bit_05sec.wav',None,1000,,,,,59,1,296,1,,,,,1216.3549601999985,1217.338757599995,1217.3392455600115,1219.8423881999915,None,1,,,,,,,,,,,,,,elpida_20_10_23,home_hugin04,2023-10-20_13h06.03.521,Oddball_task,2022.2.5,59.92739197015648,
standard,soundFiles/250Hz_44100Hz_16bit_05sec.wav',None,1000,,,,,59,2,297,2,,,,,1219.8570818000007,1220.840326799982,1220.8410397599946,1223.3413852000085,None,1,,,,,,,,,,,,,,elpida_20_10_23,home_hugin04,2023-10-20_13h06.03.521,Oddball_task,2022.2.5,59.92739197015648,
standard,soundFiles/250Hz_44100Hz_16bit_05sec.wav',None,1000,,,,,59,3,298,0,,,,,1223.358854399994,1224.3420666999882,1224.3421457600052,1226.8432087999827,None,1,,,,,,,,,,,,,,elpida_20_10_23,home_hugin04,2023-10-20_13h06.03.521,Oddball_task,2022.2.5,59.92739197015648,
target,soundFiles/1200Hz_-3dBFS_3s_44.1kHz.wav',t,2000,,,,,59,4,299,4,,,,,1226.8602456999943,1227.843779799994,1227.84352486,1230.3447609999857,t,1,,0.8219936999958009,,,,,,,,,,,,elpida_20_10_23,home_hugin04,2023-10-20_13h06.03.521,Oddball_task,2022.2.5,59.92739197015648,
,,,,,,,,,,,,,,,,,,,,,,,,,,,,,,1230.36237290001,1233.3455264999939,1233.362520900002,e,7.161947699991288,elpida_20_10_23,home_hugin04,2023-10-20_13h06.03.521,Oddball_task,2022.2.5,59.92739197015648,
