trial,file,corrAns,tone,trials_2.thisRepN,trials_2.thisTrialN,trials_2.thisN,trials_2.thisIndex,instructions.started,key_resp_1.started,key_resp_1.keys,key_resp_1.rt,fixation.started,response.started,sound_1.started,response.stopped,response.keys,response.corr,sound_1.stopped,response.rt,thank_you.started,exit_exp.started,thank_you.stopped,exit_exp.keys,exit_exp.rt,participant,session,date,expName,psychopyVersion,frameRate,
,,,,,,,,77.8263306000008,77.8263306000008,space,222.92743469999914,,,,,,,,,,,,,,elpida_23_10_23,shielded_hugin)4,2023-10-23_14h31.44.268,Oddball_task,2022.2.5,59.71675150452806,
standard,soundFiles/250Hz_44100Hz_16bit_05sec.wav',None,1000,0,0,0,3,,,,,300.79607960000067,301.76613010000074,301.7651077800007,304.26654380000036,None,1,,,,,,,,elpida_23_10_23,shielded_hugin)4,2023-10-23_14h31.44.268,Oddball_task,2022.2.5,59.71675150452806,
standard,soundFiles/250Hz_44100Hz_16bit_05sec.wav',None,1000,0,1,1,2,,,,,304.2830836000012,305.2669526000009,305.2671463800003,307.76974150000024,None,1,,,,,,,,elpida_23_10_23,shielded_hugin)4,2023-10-23_14h31.44.268,Oddball_task,2022.2.5,59.71675150452806,
standard,soundFiles/250Hz_44100Hz_16bit_05sec.wav',None,1000,0,2,2,5,,,,,307.78607450000163,308.7713231000016,308.77054718000056,311.2726833000015,None,1,,,,,,,,elpida_23_10_23,shielded_hugin)4,2023-10-23_14h31.44.268,Oddball_task,2022.2.5,59.71675150452806,
standard,soundFiles/250Hz_44100Hz_16bit_05sec.wav',None,1001,0,3,3,9,,,,,311.2891118000007,312.2733106000014,312.2726621800017,314.7750773000007,None,1,,,,,,,,elpida_23_10_23,shielded_hugin)4,2023-10-23_14h31.44.268,Oddball_task,2022.2.5,59.71675150452806,
standard,soundFiles/250Hz_44100Hz_16bit_05sec.wav',None,1000,0,4,4,8,,,,,314.791721900001,315.77640390000124,315.7760750800013,318.27790880000066,None,1,,,,,,,,elpida_23_10_23,shielded_hugin)4,2023-10-23_14h31.44.268,Oddball_task,2022.2.5,59.71675150452806,
standard,soundFiles/250Hz_44100Hz_16bit_05sec.wav',None,1000,0,5,5,7,,,,,318.2946866000002,319.2788375,319.278766080001,,None,1,320.2797623000006,,,,,,,elpida_23_10_23,shielded_hugin)4,2023-10-23_14h31.44.268,Oddball_task,2022.2.5,59.71675150452806,
standard,soundFiles/250Hz_44100Hz_16bit_05sec.wav',None,1000,0,6,6,6,,,,,321.78139290000036,322.7650839000016,322.76544098000034,325.2667321000008,None,1,,,,,,,,elpida_23_10_23,shielded_hugin)4,2023-10-23_14h31.44.268,Oddball_task,2022.2.5,59.71675150452806,
standard,soundFiles/250Hz_44100Hz_16bit_05sec.wav',None,1000,0,7,7,1,,,,,325.28432220000104,326.26745070000106,326.2679494800001,328.7707218000014,None,1,,,,,,,,elpida_23_10_23,shielded_hugin)4,2023-10-23_14h31.44.268,Oddball_task,2022.2.5,59.71675150452806,
target,soundFiles/1200Hz_-3dBFS_3s_44.1kHz.wav',t,2000,0,8,8,4,,,,,328.78720670000075,329.77104210000107,329.77107328000113,332.2744670000011,t,1,,0.853925799998251,,,,,,elpida_23_10_23,shielded_hugin)4,2023-10-23_14h31.44.268,Oddball_task,2022.2.5,59.71675150452806,
standard,soundFiles/250Hz_44100Hz_16bit_05sec.wav',None,1000,0,9,9,0,,,,,332.2899329000011,333.2742539999999,333.2739705800001,335.7760900000012,None,1,,,,,,,,elpida_23_10_23,shielded_hugin)4,2023-10-23_14h31.44.268,Oddball_task,2022.2.5,59.71675150452806,
standard,soundFiles/250Hz_44100Hz_16bit_05sec.wav',None,1001,1,0,10,9,,,,,335.79269080000086,336.7768350000006,336.7765791800017,339.2790377000001,None,1,,,,,,,,elpida_23_10_23,shielded_hugin)4,2023-10-23_14h31.44.268,Oddball_task,2022.2.5,59.71675150452806,
standard,soundFiles/250Hz_44100Hz_16bit_05sec.wav',None,1000,1,1,11,3,,,,,339.29570690000037,340.279955,340.2798178800009,,None,1,,,,,,,,elpida_23_10_23,shielded_hugin)4,2023-10-23_14h31.44.268,Oddball_task,2022.2.5,59.71675150452806,
standard,soundFiles/250Hz_44100Hz_16bit_05sec.wav',None,1000,1,2,12,5,,,,,342.78212350000103,343.7656067000007,343.76607798000134,346.26817330000085,None,1,,,,,,,,elpida_23_10_23,shielded_hugin)4,2023-10-23_14h31.44.268,Oddball_task,2022.2.5,59.71675150452806,
standard,soundFiles/250Hz_44100Hz_16bit_05sec.wav',None,1000,1,3,13,2,,,,,346.28495790000125,347.2698467000009,347.2693945800007,349.77104540000073,None,1,,,,,,,,elpida_23_10_23,shielded_hugin)4,2023-10-23_14h31.44.268,Oddball_task,2022.2.5,59.71675150452806,
standard,soundFiles/250Hz_44100Hz_16bit_05sec.wav',None,1000,1,4,14,7,,,,,349.78830930000004,350.7719388000005,350.7732750800011,353.2753098000012,None,1,,,,,,,,elpida_23_10_23,shielded_hugin)4,2023-10-23_14h31.44.268,Oddball_task,2022.2.5,59.71675150452806,
standard,soundFiles/250Hz_44100Hz_16bit_05sec.wav',None,1000,1,5,15,8,,,,,353.2908756000015,354.2749283000012,354.27530728000113,356.77735070000017,None,1,,,,,,,,elpida_23_10_23,shielded_hugin)4,2023-10-23_14h31.44.268,Oddball_task,2022.2.5,59.71675150452806,
target,soundFiles/1200Hz_-3dBFS_3s_44.1kHz.wav',t,2000,1,6,16,4,,,,,356.7936997000015,357.7793947000009,357.7782492800003,360.28044650000083,t,1,,0.8228107999984786,,,,,,elpida_23_10_23,shielded_hugin)4,2023-10-23_14h31.44.268,Oddball_task,2022.2.5,59.71675150452806,
standard,soundFiles/250Hz_44100Hz_16bit_05sec.wav',None,1000,1,7,17,6,,,,,360.29649640000025,361.26404920000095,361.26422548000176,363.76635160000114,None,1,,,,,,,,elpida_23_10_23,shielded_hugin)4,2023-10-23_14h31.44.268,Oddball_task,2022.2.5,59.71675150452806,
standard,soundFiles/250Hz_44100Hz_16bit_05sec.wav',None,1000,1,8,18,1,,,,,363.78352989999985,364.7676440000014,364.76750308000067,367.2688573000014,None,1,,,,,,,,elpida_23_10_23,shielded_hugin)4,2023-10-23_14h31.44.268,Oddball_task,2022.2.5,59.71675150452806,
standard,soundFiles/250Hz_44100Hz_16bit_05sec.wav',None,1000,1,9,19,0,,,,,367.2864247000016,368.2704979000009,368.27045518000034,370.77245030000086,None,1,,,,,,,,elpida_23_10_23,shielded_hugin)4,2023-10-23_14h31.44.268,Oddball_task,2022.2.5,59.71675150452806,
target,soundFiles/1200Hz_-3dBFS_3s_44.1kHz.wav',t,2000,2,0,20,4,,,,,370.7887386000002,371.7726323000006,371.7727429800003,374.27503920000163,t,1,,0.8060793999993621,,,,,,elpida_23_10_23,shielded_hugin)4,2023-10-23_14h31.44.268,Oddball_task,2022.2.5,59.71675150452806,
standard,soundFiles/250Hz_44100Hz_16bit_05sec.wav',None,1000,2,1,21,0,,,,,374.29181510000126,375.27637830000094,375.27583698,377.77800560000105,None,1,,,,,,,,elpida_23_10_23,shielded_hugin)4,2023-10-23_14h31.44.268,Oddball_task,2022.2.5,59.71675150452806,
standard,soundFiles/250Hz_44100Hz_16bit_05sec.wav',None,1000,2,2,22,6,,,,,377.7950090000013,378.7789829000012,378.7788658800006,,None,1,,,,,,,,elpida_23_10_23,shielded_hugin)4,2023-10-23_14h31.44.268,Oddball_task,2022.2.5,59.71675150452806,
standard,soundFiles/250Hz_44100Hz_16bit_05sec.wav',None,1000,2,3,23,1,,,,,381.28120670000135,382.2653354000013,382.26483988000166,384.7668225000016,None,1,,,,,,,,elpida_23_10_23,shielded_hugin)4,2023-10-23_14h31.44.268,Oddball_task,2022.2.5,59.71675150452806,
standard,soundFiles/250Hz_44100Hz_16bit_05sec.wav',None,1000,2,4,24,8,,,,,384.7840661000009,385.7677225000007,385.76852088,388.2701057000013,None,1,,,,,,,,elpida_23_10_23,shielded_hugin)4,2023-10-23_14h31.44.268,Oddball_task,2022.2.5,59.71675150452806,
standard,soundFiles/250Hz_44100Hz_16bit_05sec.wav',None,1000,2,5,25,7,,,,,388.2872174000004,389.2717048000013,389.27091428000006,391.7730982000012,None,1,,,,,,,,elpida_23_10_23,shielded_hugin)4,2023-10-23_14h31.44.268,Oddball_task,2022.2.5,59.71675150452806,
standard,soundFiles/250Hz_44100Hz_16bit_05sec.wav',None,1000,2,6,26,2,,,,,391.79059920000145,392.7736764000001,392.7745941800009,395.2759351000004,None,1,,,,,,,,elpida_23_10_23,shielded_hugin)4,2023-10-23_14h31.44.268,Oddball_task,2022.2.5,59.71675150452806,
standard,soundFiles/250Hz_44100Hz_16bit_05sec.wav',None,1000,2,7,27,3,,,,,395.2925888000009,396.2772350000014,396.27662168000154,398.77905270000156,None,1,,,,,,,,elpida_23_10_23,shielded_hugin)4,2023-10-23_14h31.44.268,Oddball_task,2022.2.5,59.71675150452806,
standard,soundFiles/250Hz_44100Hz_16bit_05sec.wav',None,1000,2,8,28,5,,,,,398.79546350000055,399.77978299999995,399.78002898000034,,None,1,,,,,,,,elpida_23_10_23,shielded_hugin)4,2023-10-23_14h31.44.268,Oddball_task,2022.2.5,59.71675150452806,
standard,soundFiles/250Hz_44100Hz_16bit_05sec.wav',None,1001,2,9,29,9,,,,,402.28263620000143,403.26667350000025,403.2657887800002,405.7679395000014,None,1,,,,,,,,elpida_23_10_23,shielded_hugin)4,2023-10-23_14h31.44.268,Oddball_task,2022.2.5,59.71675150452806,
standard,soundFiles/250Hz_44100Hz_16bit_05sec.wav',None,1001,3,0,30,9,,,,,405.7848764999999,406.76880230000097,406.76973908000093,409.2714055000015,None,1,,,,,,,,elpida_23_10_23,shielded_hugin)4,2023-10-23_14h31.44.268,Oddball_task,2022.2.5,59.71675150452806,
standard,soundFiles/250Hz_44100Hz_16bit_05sec.wav',None,1000,3,1,31,7,,,,,409.28830240000025,410.2715779000009,410.27159838000136,412.77497180000137,None,1,,,,,,,,elpida_23_10_23,shielded_hugin)4,2023-10-23_14h31.44.268,Oddball_task,2022.2.5,59.71675150452806,
standard,soundFiles/250Hz_44100Hz_16bit_05sec.wav',None,1000,3,2,32,0,,,,,412.79043490000004,413.7748556000006,413.7746372800017,416.27699329999996,None,1,,,,,,,,elpida_23_10_23,shielded_hugin)4,2023-10-23_14h31.44.268,Oddball_task,2022.2.5,59.71675150452806,
standard,soundFiles/250Hz_44100Hz_16bit_05sec.wav',None,1000,3,3,33,2,,,,,416.2940546000009,417.27770300000157,417.2777546800013,419.7802533000013,None,1,,,,,,,,elpida_23_10_23,shielded_hugin)4,2023-10-23_14h31.44.268,Oddball_task,2022.2.5,59.71675150452806,
standard,soundFiles/250Hz_44100Hz_16bit_05sec.wav',None,1000,3,4,34,1,,,,,419.79650780000156,420.7649418000001,420.76449258000014,423.2669848000005,None,1,,,,,,,,elpida_23_10_23,shielded_hugin)4,2023-10-23_14h31.44.268,Oddball_task,2022.2.5,59.71675150452806,
target,soundFiles/1200Hz_-3dBFS_3s_44.1kHz.wav',t,2000,3,5,35,4,,,,,423.2825960000009,424.26714119999997,424.2674496800015,426.7691865000015,t,1,,0.8286283999987063,,,,,,elpida_23_10_23,shielded_hugin)4,2023-10-23_14h31.44.268,Oddball_task,2022.2.5,59.71675150452806,
standard,soundFiles/250Hz_44100Hz_16bit_05sec.wav',None,1000,3,6,36,5,,,,,426.7861298000007,427.77100150000115,427.7706754800007,430.27300710000054,None,1,,,,,,,,elpida_23_10_23,shielded_hugin)4,2023-10-23_14h31.44.268,Oddball_task,2022.2.5,59.71675150452806,
standard,soundFiles/250Hz_44100Hz_16bit_05sec.wav',None,1000,3,7,37,3,,,,,430.28850070000044,431.272930000001,431.2731758800006,433.7757399000002,None,1,,,,,,,,elpida_23_10_23,shielded_hugin)4,2023-10-23_14h31.44.268,Oddball_task,2022.2.5,59.71675150452806,
standard,soundFiles/250Hz_44100Hz_16bit_05sec.wav',None,1000,3,8,38,6,,,,,433.79211300000134,434.7760698000002,434.77642378000075,437.2778986000012,None,1,,,,,,,,elpida_23_10_23,shielded_hugin)4,2023-10-23_14h31.44.268,Oddball_task,2022.2.5,59.71675150452806,
standard,soundFiles/250Hz_44100Hz_16bit_05sec.wav',None,1000,3,9,39,8,,,,,437.2945808000004,438.27906150000126,438.27886958000147,,None,1,,,,,,,,elpida_23_10_23,shielded_hugin)4,2023-10-23_14h31.44.268,Oddball_task,2022.2.5,59.71675150452806,
standard,soundFiles/250Hz_44100Hz_16bit_05sec.wav',None,1000,4,0,40,0,,,,,440.7809051000004,441.76560000000063,441.7650146800012,444.26779760000136,None,1,,,,,,,,elpida_23_10_23,shielded_hugin)4,2023-10-23_14h31.44.268,Oddball_task,2022.2.5,59.71675150452806,
target,soundFiles/1200Hz_-3dBFS_3s_44.1kHz.wav',t,2000,4,1,41,4,,,,,444.28452819999984,445.2676220000012,445.2676806800015,447.77007050000066,t,1,,0.7652419000005466,,,,,,elpida_23_10_23,shielded_hugin)4,2023-10-23_14h31.44.268,Oddball_task,2022.2.5,59.71675150452806,
standard,soundFiles/250Hz_44100Hz_16bit_05sec.wav',None,1000,4,2,42,3,,,,,447.7868888000012,448.7708437000001,448.7714799800002,451.2731311000007,None,1,,,,,,,,elpida_23_10_23,shielded_hugin)4,2023-10-23_14h31.44.268,Oddball_task,2022.2.5,59.71675150452806,
standard,soundFiles/250Hz_44100Hz_16bit_05sec.wav',None,1001,4,3,43,9,,,,,451.2905963000012,452.27389570000014,452.27414248000116,454.77637890000005,None,1,,,,,,,,elpida_23_10_23,shielded_hugin)4,2023-10-23_14h31.44.268,Oddball_task,2022.2.5,59.71675150452806,
standard,soundFiles/250Hz_44100Hz_16bit_05sec.wav',None,1000,4,4,44,1,,,,,454.79258579999987,455.7768033000011,455.7768987800015,458.27892410000095,None,1,,,,,,,,elpida_23_10_23,shielded_hugin)4,2023-10-23_14h31.44.268,Oddball_task,2022.2.5,59.71675150452806,
standard,soundFiles/250Hz_44100Hz_16bit_05sec.wav',None,1000,4,5,45,8,,,,,458.2957684000012,459.28018780000093,459.2803997800007,,None,1,,,,,,,,elpida_23_10_23,shielded_hugin)4,2023-10-23_14h31.44.268,Oddball_task,2022.2.5,59.71675150452806,
standard,soundFiles/250Hz_44100Hz_16bit_05sec.wav',None,1000,4,6,46,5,,,,,461.7820068000001,462.7656678000003,462.76618438000025,465.26784450000014,None,1,,,,,,,,elpida_23_10_23,shielded_hugin)4,2023-10-23_14h31.44.268,Oddball_task,2022.2.5,59.71675150452806,
standard,soundFiles/250Hz_44100Hz_16bit_05sec.wav',None,1000,4,7,47,7,,,,,465.28565490000074,466.26872450000155,466.26882068,468.7711109000011,None,1,,,,,,,,elpida_23_10_23,shielded_hugin)4,2023-10-23_14h31.44.268,Oddball_task,2022.2.5,59.71675150452806,
standard,soundFiles/250Hz_44100Hz_16bit_05sec.wav',None,1000,4,8,48,6,,,,,468.7877335000012,469.7710889000009,469.7713767800002,472.2740504000012,None,1,,,,,,,,elpida_23_10_23,shielded_hugin)4,2023-10-23_14h31.44.268,Oddball_task,2022.2.5,59.71675150452806,
standard,soundFiles/250Hz_44100Hz_16bit_05sec.wav',None,1000,4,9,49,2,,,,,472.29054950000136,473.27458880000086,473.27484568000057,475.7775780000011,None,1,,,,,,,,elpida_23_10_23,shielded_hugin)4,2023-10-23_14h31.44.268,Oddball_task,2022.2.5,59.71675150452806,
standard,soundFiles/250Hz_44100Hz_16bit_05sec.wav',None,1000,5,0,50,5,,,,,475.79382260000057,476.7775429000012,476.77828168000144,479.28032150000035,None,1,,,,,,,,elpida_23_10_23,shielded_hugin)4,2023-10-23_14h31.44.268,Oddball_task,2022.2.5,59.71675150452806,
standard,soundFiles/250Hz_44100Hz_16bit_05sec.wav',None,1000,5,1,51,0,,,,,479.2965894000008,480.2639899000005,480.2642539800005,482.7661063000014,None,1,,,,,,,,elpida_23_10_23,shielded_hugin)4,2023-10-23_14h31.44.268,Oddball_task,2022.2.5,59.71675150452806,
standard,soundFiles/250Hz_44100Hz_16bit_05sec.wav',None,1001,5,2,52,9,,,,,482.78332390000105,483.7665455000006,483.76706438000167,486.26914639999995,None,1,,,,,,,,elpida_23_10_23,shielded_hugin)4,2023-10-23_14h31.44.268,Oddball_task,2022.2.5,59.71675150452806,
standard,soundFiles/250Hz_44100Hz_16bit_05sec.wav',None,1000,5,3,53,7,,,,,486.2854253000005,487.26952600000004,487.26983778000124,489.7722928000003,None,1,,,,,,,,elpida_23_10_23,shielded_hugin)4,2023-10-23_14h31.44.268,Oddball_task,2022.2.5,59.71675150452806,
standard,soundFiles/250Hz_44100Hz_16bit_05sec.wav',None,1000,5,4,54,2,,,,,489.7883034000006,490.7725685000005,490.77300618000174,493.27509009999994,None,1,,,,,,,,elpida_23_10_23,shielded_hugin)4,2023-10-23_14h31.44.268,Oddball_task,2022.2.5,59.71675150452806,
standard,soundFiles/250Hz_44100Hz_16bit_05sec.wav',None,1000,5,5,55,1,,,,,493.2916986,494.2755434999999,494.2761120800011,496.77741890000107,None,1,,,,,,,,elpida_23_10_23,shielded_hugin)4,2023-10-23_14h31.44.268,Oddball_task,2022.2.5,59.71675150452806,
standard,soundFiles/250Hz_44100Hz_16bit_05sec.wav',None,1000,5,6,56,8,,,,,496.7942512000009,497.778043100001,497.7781555800017,,None,1,,,,,,,,elpida_23_10_23,shielded_hugin)4,2023-10-23_14h31.44.268,Oddball_task,2022.2.5,59.71675150452806,
standard,soundFiles/250Hz_44100Hz_16bit_05sec.wav',None,1000,5,7,57,6,,,,,500.28043980000075,501.26442940000015,501.2651995800012,503.7677171000014,None,1,,,,,,,,elpida_23_10_23,shielded_hugin)4,2023-10-23_14h31.44.268,Oddball_task,2022.2.5,59.71675150452806,
standard,soundFiles/250Hz_44100Hz_16bit_05sec.wav',None,1000,5,8,58,3,,,,,503.78373270000156,504.76781889999984,504.76812218,507.2701040000011,None,1,,,,,,,,elpida_23_10_23,shielded_hugin)4,2023-10-23_14h31.44.268,Oddball_task,2022.2.5,59.71675150452806,
target,soundFiles/1200Hz_-3dBFS_3s_44.1kHz.wav',t,2000,5,9,59,4,,,,,507.2865967000016,508.2707769000008,508.2710530800001,510.7731018000013,t,1,,0.8391839999985677,,,,,,elpida_23_10_23,shielded_hugin)4,2023-10-23_14h31.44.268,Oddball_task,2022.2.5,59.71675150452806,
standard,soundFiles/250Hz_44100Hz_16bit_05sec.wav',None,1000,6,0,60,2,,,,,510.7896137000007,511.77387350000026,511.7740591800017,514.2762672000008,None,1,,,,,,,,elpida_23_10_23,shielded_hugin)4,2023-10-23_14h31.44.268,Oddball_task,2022.2.5,59.71675150452806,
standard,soundFiles/250Hz_44100Hz_16bit_05sec.wav',None,1000,6,1,61,8,,,,,514.292416100001,515.2770299000003,515.27641628,517.7788122000002,None,1,,,,,,,,elpida_23_10_23,shielded_hugin)4,2023-10-23_14h31.44.268,Oddball_task,2022.2.5,59.71675150452806,
standard,soundFiles/250Hz_44100Hz_16bit_05sec.wav',None,1000,6,2,62,3,,,,,517.7959038000008,518.7794208000014,518.7799143800008,,None,1,,,,,,,,elpida_23_10_23,shielded_hugin)4,2023-10-23_14h31.44.268,Oddball_task,2022.2.5,59.71675150452806,
standard,soundFiles/250Hz_44100Hz_16bit_05sec.wav',None,1000,6,3,63,6,,,,,521.2812128000005,522.2658839000014,522.2656771800017,524.7677889000006,None,1,,,,,,,,elpida_23_10_23,shielded_hugin)4,2023-10-23_14h31.44.268,Oddball_task,2022.2.5,59.71675150452806,
standard,soundFiles/250Hz_44100Hz_16bit_05sec.wav',None,1001,6,4,64,9,,,,,524.7843736000013,525.7687606,525.7691822800012,528.2710110000007,None,1,,,,,,,,elpida_23_10_23,shielded_hugin)4,2023-10-23_14h31.44.268,Oddball_task,2022.2.5,59.71675150452806,
target,soundFiles/1200Hz_-3dBFS_3s_44.1kHz.wav',t,2000,6,5,65,4,,,,,528.2873104999999,529.2718981000016,529.27168038,531.7743564000011,t,1,,0.8551030999988143,,,,,,elpida_23_10_23,shielded_hugin)4,2023-10-23_14h31.44.268,Oddball_task,2022.2.5,59.71675150452806,
standard,soundFiles/250Hz_44100Hz_16bit_05sec.wav',None,1000,6,6,66,5,,,,,531.7906576000005,532.7750399000015,532.7749629800006,535.2765114000013,None,1,,,,,,,,elpida_23_10_23,shielded_hugin)4,2023-10-23_14h31.44.268,Oddball_task,2022.2.5,59.71675150452806,
standard,soundFiles/250Hz_44100Hz_16bit_05sec.wav',None,1000,6,7,67,1,,,,,535.2931093000007,536.2777167000004,536.2772276800011,538.7805991000005,None,1,,,,,,,,elpida_23_10_23,shielded_hugin)4,2023-10-23_14h31.44.268,Oddball_task,2022.2.5,59.71675150452806,
standard,soundFiles/250Hz_44100Hz_16bit_05sec.wav',None,1000,6,8,68,7,,,,,538.7963983000009,539.7637739000002,539.7635911800013,542.2664951000006,None,1,,,,,,,,elpida_23_10_23,shielded_hugin)4,2023-10-23_14h31.44.268,Oddball_task,2022.2.5,59.71675150452806,
standard,soundFiles/250Hz_44100Hz_16bit_05sec.wav',None,1000,6,9,69,0,,,,,542.2823222000006,543.2666875000014,543.2671110800007,545.7688129000016,None,1,,,,,,,,elpida_23_10_23,shielded_hugin)4,2023-10-23_14h31.44.268,Oddball_task,2022.2.5,59.71675150452806,
standard,soundFiles/250Hz_44100Hz_16bit_05sec.wav',None,1000,7,0,70,0,,,,,545.7855275000002,546.7695349000005,546.769988480001,549.2715673000002,None,1,,,,,,,,elpida_23_10_23,shielded_hugin)4,2023-10-23_14h31.44.268,Oddball_task,2022.2.5,59.71675150452806,
standard,soundFiles/250Hz_44100Hz_16bit_05sec.wav',None,1000,7,1,71,1,,,,,549.2881335000002,550.2722703,550.2723542800001,552.7751349999999,None,1,,,,,,,,elpida_23_10_23,shielded_hugin)4,2023-10-23_14h31.44.268,Oddball_task,2022.2.5,59.71675150452806,
standard,soundFiles/250Hz_44100Hz_16bit_05sec.wav',None,1000,7,2,72,6,,,,,552.7909267000014,553.7761061000001,553.7753394800008,556.2778309000005,None,1,,,,,,,,elpida_23_10_23,shielded_hugin)4,2023-10-23_14h31.44.268,Oddball_task,2022.2.5,59.71675150452806,
standard,soundFiles/250Hz_44100Hz_16bit_05sec.wav',None,1000,7,3,73,3,,,,,556.2939028000001,557.2782478000008,557.2782774800004,559.7806106000007,None,1,,,,,,,,elpida_23_10_23,shielded_hugin)4,2023-10-23_14h31.44.268,Oddball_task,2022.2.5,59.71675150452806,
standard,soundFiles/250Hz_44100Hz_16bit_05sec.wav',None,1001,7,4,74,9,,,,,559.797262600001,560.7646488000009,560.7655394800009,563.2676661000005,None,1,,,,,,,,elpida_23_10_23,shielded_hugin)4,2023-10-23_14h31.44.268,Oddball_task,2022.2.5,59.71675150452806,
target,soundFiles/1200Hz_-3dBFS_3s_44.1kHz.wav',t,2000,7,5,75,4,,,,,563.2840802999999,564.2674618000001,564.26753238,566.7703224000015,t,1,,0.9147739999989426,,,,,,elpida_23_10_23,shielded_hugin)4,2023-10-23_14h31.44.268,Oddball_task,2022.2.5,59.71675150452806,
standard,soundFiles/250Hz_44100Hz_16bit_05sec.wav',None,1000,7,6,76,5,,,,,566.7865966000008,567.7709899000001,567.7708137800006,570.2729508000011,None,1,,,,,,,,elpida_23_10_23,shielded_hugin)4,2023-10-23_14h31.44.268,Oddball_task,2022.2.5,59.71675150452806,
standard,soundFiles/250Hz_44100Hz_16bit_05sec.wav',None,1000,7,7,77,8,,,,,570.2901709000016,571.2740376000002,571.2737476800017,573.7756732000016,None,1,,,,,,,,elpida_23_10_23,shielded_hugin)4,2023-10-23_14h31.44.268,Oddball_task,2022.2.5,59.71675150452806,
standard,soundFiles/250Hz_44100Hz_16bit_05sec.wav',None,1000,7,8,78,7,,,,,573.7928022000015,574.7766399000011,574.7762165800001,577.2782293,None,1,,,,,,,,elpida_23_10_23,shielded_hugin)4,2023-10-23_14h31.44.268,Oddball_task,2022.2.5,59.71675150452806,
standard,soundFiles/250Hz_44100Hz_16bit_05sec.wav',None,1000,7,9,79,2,,,,,577.2960137000009,578.279200500001,578.2791327800011,,None,1,,,,,,,,elpida_23_10_23,shielded_hugin)4,2023-10-23_14h31.44.268,Oddball_task,2022.2.5,59.71675150452806,
standard,soundFiles/250Hz_44100Hz_16bit_05sec.wav',None,1000,8,0,80,0,,,,,580.7815543000015,581.7662560000008,581.7660433800016,584.2678503000006,None,1,,,,,,,,elpida_23_10_23,shielded_hugin)4,2023-10-23_14h31.44.268,Oddball_task,2022.2.5,59.71675150452806,
standard,soundFiles/250Hz_44100Hz_16bit_05sec.wav',None,1000,8,1,81,6,,,,,584.2848654000009,585.2686078000006,585.2690353800014,587.7708192999999,None,1,,,,,,,,elpida_23_10_23,shielded_hugin)4,2023-10-23_14h31.44.268,Oddball_task,2022.2.5,59.71675150452806,
standard,soundFiles/250Hz_44100Hz_16bit_05sec.wav',None,1000,8,2,82,7,,,,,587.7891109000011,588.7716553999999,588.7711805800014,591.2734858000003,None,1,,,,,,,,elpida_23_10_23,shielded_hugin)4,2023-10-23_14h31.44.268,Oddball_task,2022.2.5,59.71675150452806,
standard,soundFiles/250Hz_44100Hz_16bit_05sec.wav',None,1000,8,3,83,2,,,,,591.2903561000003,592.2751161000015,592.2745876800005,594.7763899000001,None,1,,,,,,,,elpida_23_10_23,shielded_hugin)4,2023-10-23_14h31.44.268,Oddball_task,2022.2.5,59.71675150452806,
target,soundFiles/1200Hz_-3dBFS_3s_44.1kHz.wav',t,2000,8,4,84,4,,,,,594.7932736000002,595.7783069000016,595.7779937800011,598.2791770000003,t,1,,0.6492529000006471,,,,,,elpida_23_10_23,shielded_hugin)4,2023-10-23_14h31.44.268,Oddball_task,2022.2.5,59.71675150452806,
standard,soundFiles/250Hz_44100Hz_16bit_05sec.wav',None,1000,8,5,85,1,,,,,598.2971784000001,599.2634252000007,599.2637901800014,601.7657151000003,None,1,600.264701600001,,,,,,,elpida_23_10_23,shielded_hugin)4,2023-10-23_14h31.44.268,Oddball_task,2022.2.5,59.71675150452806,
standard,soundFiles/250Hz_44100Hz_16bit_05sec.wav',None,1000,8,6,86,3,,,,,601.7834407999999,602.7670332000016,602.7669759800016,605.2684818000016,None,1,,,,,,,,elpida_23_10_23,shielded_hugin)4,2023-10-23_14h31.44.268,Oddball_task,2022.2.5,59.71675150452806,
standard,soundFiles/250Hz_44100Hz_16bit_05sec.wav',None,1000,8,7,87,8,,,,,605.286155400001,606.2700208000006,606.2697797800016,608.771362200001,None,1,,,,,,,,elpida_23_10_23,shielded_hugin)4,2023-10-23_14h31.44.268,Oddball_task,2022.2.5,59.71675150452806,
standard,soundFiles/250Hz_44100Hz_16bit_05sec.wav',None,1000,8,8,88,5,,,,,608.7886635000013,609.7726779000004,609.7729912800011,612.274271100001,None,1,,,,,,,,elpida_23_10_23,shielded_hugin)4,2023-10-23_14h31.44.268,Oddball_task,2022.2.5,59.71675150452806,
standard,soundFiles/250Hz_44100Hz_16bit_05sec.wav',None,1001,8,9,89,9,,,,,612.2913906000013,613.276375200001,613.2756715800011,615.777400500001,None,1,,,,,,,,elpida_23_10_23,shielded_hugin)4,2023-10-23_14h31.44.268,Oddball_task,2022.2.5,59.71675150452806,
standard,soundFiles/250Hz_44100Hz_16bit_05sec.wav',None,1000,9,0,90,1,,,,,615.794375200001,616.7785775000011,616.7782305800016,619.2802908000012,None,1,,,,,,,,elpida_23_10_23,shielded_hugin)4,2023-10-23_14h31.44.268,Oddball_task,2022.2.5,59.71675150452806,
standard,soundFiles/250Hz_44100Hz_16bit_05sec.wav',None,1000,9,1,91,3,,,,,619.2969065000016,620.2644457000006,620.2646008800008,622.7669089999999,None,1,621.2670131000013,,,,,,,elpida_23_10_23,shielded_hugin)4,2023-10-23_14h31.44.268,Oddball_task,2022.2.5,59.71675150452806,
standard,soundFiles/250Hz_44100Hz_16bit_05sec.wav',None,1001,9,2,92,9,,,,,622.7841191000007,623.7684972000006,623.7677047800013,626.2698130000008,None,1,,,,,,,,elpida_23_10_23,shielded_hugin)4,2023-10-23_14h31.44.268,Oddball_task,2022.2.5,59.71675150452806,
standard,soundFiles/250Hz_44100Hz_16bit_05sec.wav',None,1000,9,3,93,7,,,,,626.2864054000001,627.2709345000003,627.2704806800017,629.7733229000005,None,1,,,,,,,,elpida_23_10_23,shielded_hugin)4,2023-10-23_14h31.44.268,Oddball_task,2022.2.5,59.71675150452806,
target,soundFiles/1200Hz_-3dBFS_3s_44.1kHz.wav',t,2000,9,4,94,4,,,,,629.7896971000009,630.7737436000007,630.773820680001,633.2751408000004,t,1,,0.7469760999993014,,,,,,elpida_23_10_23,shielded_hugin)4,2023-10-23_14h31.44.268,Oddball_task,2022.2.5,59.71675150452806,
standard,soundFiles/250Hz_44100Hz_16bit_05sec.wav',None,1000,9,5,95,8,,,,,633.2921186000003,634.2766372000006,634.2763878800002,636.7788995999999,None,1,,,,,,,,elpida_23_10_23,shielded_hugin)4,2023-10-23_14h31.44.268,Oddball_task,2022.2.5,59.71675150452806,
standard,soundFiles/250Hz_44100Hz_16bit_05sec.wav',None,1000,9,6,96,0,,,,,636.7959604000007,637.7790408000001,637.7792529800014,,None,1,,,,,,,,elpida_23_10_23,shielded_hugin)4,2023-10-23_14h31.44.268,Oddball_task,2022.2.5,59.71675150452806,
standard,soundFiles/250Hz_44100Hz_16bit_05sec.wav',None,1000,9,7,97,5,,,,,640.2814342000001,641.2653684000015,641.2653857800002,643.7685969000013,None,1,,,,,,,,elpida_23_10_23,shielded_hugin)4,2023-10-23_14h31.44.268,Oddball_task,2022.2.5,59.71675150452806,
standard,soundFiles/250Hz_44100Hz_16bit_05sec.wav',None,1000,9,8,98,2,,,,,643.7845651000007,644.7690239000003,644.7684531800011,647.2706408000013,None,1,,,,,,,,elpida_23_10_23,shielded_hugin)4,2023-10-23_14h31.44.268,Oddball_task,2022.2.5,59.71675150452806,
standard,soundFiles/250Hz_44100Hz_16bit_05sec.wav',None,1000,9,9,99,6,,,,,647.2871796,648.2716747000013,648.2717000800009,650.7730118,None,1,,,,,,,,elpida_23_10_23,shielded_hugin)4,2023-10-23_14h31.44.268,Oddball_task,2022.2.5,59.71675150452806,
standard,soundFiles/250Hz_44100Hz_16bit_05sec.wav',None,1000,10,0,100,0,,,,,650.7899226000009,651.7739334000016,651.7740260800007,654.2765156000005,None,1,,,,,,,,elpida_23_10_23,shielded_hugin)4,2023-10-23_14h31.44.268,Oddball_task,2022.2.5,59.71675150452806,
standard,soundFiles/250Hz_44100Hz_16bit_05sec.wav',None,1000,10,1,101,3,,,,,654.2933135000003,655.2771130000001,655.2768767800013,657.7792017000011,None,1,,,,,,,,elpida_23_10_23,shielded_hugin)4,2023-10-23_14h31.44.268,Oddball_task,2022.2.5,59.71675150452806,
standard,soundFiles/250Hz_44100Hz_16bit_05sec.wav',None,1000,10,2,102,1,,,,,657.7963256000003,658.7633409000009,658.7637243800006,661.2657007000016,None,1,,,,,,,,elpida_23_10_23,shielded_hugin)4,2023-10-23_14h31.44.268,Oddball_task,2022.2.5,59.71675150452806,
standard,soundFiles/250Hz_44100Hz_16bit_05sec.wav',None,1001,10,3,103,9,,,,,661.2823677000015,662.2660580000011,662.2661915800005,664.7682222000003,None,1,,,,,,,,elpida_23_10_23,shielded_hugin)4,2023-10-23_14h31.44.268,Oddball_task,2022.2.5,59.71675150452806,
standard,soundFiles/250Hz_44100Hz_16bit_05sec.wav',None,1000,10,4,104,7,,,,,664.785135600001,665.7693974000013,665.7692108800007,668.2719454000016,None,1,,,,,,,,elpida_23_10_23,shielded_hugin)4,2023-10-23_14h31.44.268,Oddball_task,2022.2.5,59.71675150452806,
standard,soundFiles/250Hz_44100Hz_16bit_05sec.wav',None,1000,10,5,105,6,,,,,668.288595,669.2718220000006,669.272337680001,671.7741442000006,None,1,,,,,,,,elpida_23_10_23,shielded_hugin)4,2023-10-23_14h31.44.268,Oddball_task,2022.2.5,59.71675150452806,
standard,soundFiles/250Hz_44100Hz_16bit_05sec.wav',None,1000,10,6,106,5,,,,,671.7910731000011,672.7748154000001,672.7748081800006,675.2771424000002,None,1,,,,,,,,elpida_23_10_23,shielded_hugin)4,2023-10-23_14h31.44.268,Oddball_task,2022.2.5,59.71675150452806,
target,soundFiles/1200Hz_-3dBFS_3s_44.1kHz.wav',t,2000,10,7,107,4,,,,,675.2935740000012,676.2776958000013,676.2779664800006,678.7802777000015,t,1,,0.8663640999984636,,,,,,elpida_23_10_23,shielded_hugin)4,2023-10-23_14h31.44.268,Oddball_task,2022.2.5,59.71675150452806,
standard,soundFiles/250Hz_44100Hz_16bit_05sec.wav',None,1000,10,8,108,8,,,,,678.7967020000015,679.764054700001,679.7646049800011,682.2676747000005,None,1,680.7660586000002,,,,,,,elpida_23_10_23,shielded_hugin)4,2023-10-23_14h31.44.268,Oddball_task,2022.2.5,59.71675150452806,
standard,soundFiles/250Hz_44100Hz_16bit_05sec.wav',None,1000,10,9,109,2,,,,,682.2834938000015,683.2671145000004,683.26691318,685.7694342000013,None,1,,,,,,,,elpida_23_10_23,shielded_hugin)4,2023-10-23_14h31.44.268,Oddball_task,2022.2.5,59.71675150452806,
standard,soundFiles/250Hz_44100Hz_16bit_05sec.wav',None,1000,11,0,110,5,,,,,685.7858751000003,686.7699749000003,686.7703480800016,689.2728617000012,None,1,,,,,,,,elpida_23_10_23,shielded_hugin)4,2023-10-23_14h31.44.268,Oddball_task,2022.2.5,59.71675150452806,
standard,soundFiles/250Hz_44100Hz_16bit_05sec.wav',None,1000,11,1,111,7,,,,,689.289302000001,690.2733375000007,690.2734956800001,692.7754210000003,None,1,,,,,,,,elpida_23_10_23,shielded_hugin)4,2023-10-23_14h31.44.268,Oddball_task,2022.2.5,59.71675150452806,
standard,soundFiles/250Hz_44100Hz_16bit_05sec.wav',None,1000,11,2,112,3,,,,,692.792437600001,693.7758310000008,693.7760588800016,696.2786661999999,None,1,,,,,,,,elpida_23_10_23,shielded_hugin)4,2023-10-23_14h31.44.268,Oddball_task,2022.2.5,59.71675150452806,
target,soundFiles/1200Hz_-3dBFS_3s_44.1kHz.wav',t,2000,11,3,113,4,,,,,696.2952467000014,697.2790172000005,697.2795577800013,,t,1,,0.8095812999999907,,,,,,elpida_23_10_23,shielded_hugin)4,2023-10-23_14h31.44.268,Oddball_task,2022.2.5,59.71675150452806,
standard,soundFiles/250Hz_44100Hz_16bit_05sec.wav',None,1000,11,4,114,1,,,,,699.7815280000013,700.7673308000012,700.7658483800011,703.2677477000016,None,1,701.7668291000009,,,,,,,elpida_23_10_23,shielded_hugin)4,2023-10-23_14h31.44.268,Oddball_task,2022.2.5,59.71675150452806,
standard,soundFiles/250Hz_44100Hz_16bit_05sec.wav',None,1001,11,5,115,9,,,,,703.2846270000009,704.2683192000004,704.2682221800011,706.7713156000009,None,1,,,,,,,,elpida_23_10_23,shielded_hugin)4,2023-10-23_14h31.44.268,Oddball_task,2022.2.5,59.71675150452806,
standard,soundFiles/250Hz_44100Hz_16bit_05sec.wav',None,1000,11,6,116,2,,,,,706.7873336000011,707.7714549000011,707.7712025800016,710.2741460000016,None,1,,,,,,,,elpida_23_10_23,shielded_hugin)4,2023-10-23_14h31.44.268,Oddball_task,2022.2.5,59.71675150452806,
standard,soundFiles/250Hz_44100Hz_16bit_05sec.wav',None,1000,11,7,117,0,,,,,710.2900474000016,711.2743448000001,711.2741756800011,713.7769384000003,None,1,,,,,,,,elpida_23_10_23,shielded_hugin)4,2023-10-23_14h31.44.268,Oddball_task,2022.2.5,59.71675150452806,
standard,soundFiles/250Hz_44100Hz_16bit_05sec.wav',None,1000,11,8,118,8,,,,,713.7931026000006,714.7773427000011,714.7782938800016,717.2789139000015,None,1,,,,,,,,elpida_23_10_23,shielded_hugin)4,2023-10-23_14h31.44.268,Oddball_task,2022.2.5,59.71675150452806,
standard,soundFiles/250Hz_44100Hz_16bit_05sec.wav',None,1000,11,9,119,6,,,,,717.2957532,718.2636971000011,718.2641690800016,720.7661983000016,None,1,,,,,,,,elpida_23_10_23,shielded_hugin)4,2023-10-23_14h31.44.268,Oddball_task,2022.2.5,59.71675150452806,
standard,soundFiles/250Hz_44100Hz_16bit_05sec.wav',None,1001,12,0,120,9,,,,,720.7827382000014,721.7668406000012,721.766491680001,724.268740200001,None,1,722.7674468000005,,,,,,,elpida_23_10_23,shielded_hugin)4,2023-10-23_14h31.44.268,Oddball_task,2022.2.5,59.71675150452806,
standard,soundFiles/250Hz_44100Hz_16bit_05sec.wav',None,1000,12,1,121,7,,,,,724.2851394000008,725.2702783000004,725.2699829800009,727.7721285000007,None,1,,,,,,,,elpida_23_10_23,shielded_hugin)4,2023-10-23_14h31.44.268,Oddball_task,2022.2.5,59.71675150452806,
standard,soundFiles/250Hz_44100Hz_16bit_05sec.wav',None,1000,12,2,122,2,,,,,727.7883758000007,728.7725023000003,728.7725672800012,731.274782800001,None,1,,,,,,,,elpida_23_10_23,shielded_hugin)4,2023-10-23_14h31.44.268,Oddball_task,2022.2.5,59.71675150452806,
target,soundFiles/1200Hz_-3dBFS_3s_44.1kHz.wav',t,2000,12,3,123,4,,,,,731.291301700001,732.2758826000008,732.2761824800006,734.7774413000006,t,1,,0.8598325999992085,,,,,,elpida_23_10_23,shielded_hugin)4,2023-10-23_14h31.44.268,Oddball_task,2022.2.5,59.71675150452806,
standard,soundFiles/250Hz_44100Hz_16bit_05sec.wav',None,1000,12,4,124,8,,,,,734.7941428000013,735.7798005000004,735.7785645800001,738.2801202999999,None,1,,,,,,,,elpida_23_10_23,shielded_hugin)4,2023-10-23_14h31.44.268,Oddball_task,2022.2.5,59.71675150452806,
standard,soundFiles/250Hz_44100Hz_16bit_05sec.wav',None,1000,12,5,125,1,,,,,738.2974131999999,739.2647385,739.2650898800008,741.7672643000005,None,1,,,,,,,,elpida_23_10_23,shielded_hugin)4,2023-10-23_14h31.44.268,Oddball_task,2022.2.5,59.71675150452806,
standard,soundFiles/250Hz_44100Hz_16bit_05sec.wav',None,1000,12,6,126,5,,,,,741.7835485000014,742.7680447000002,742.7669944800006,745.270298200001,None,1,,,,,,,,elpida_23_10_23,shielded_hugin)4,2023-10-23_14h31.44.268,Oddball_task,2022.2.5,59.71675150452806,
standard,soundFiles/250Hz_44100Hz_16bit_05sec.wav',None,1000,12,7,127,0,,,,,745.2862866000014,746.2704076999999,746.27051008,748.7733537000004,None,1,,,,,,,,elpida_23_10_23,shielded_hugin)4,2023-10-23_14h31.44.268,Oddball_task,2022.2.5,59.71675150452806,
standard,soundFiles/250Hz_44100Hz_16bit_05sec.wav',None,1000,12,8,128,6,,,,,748.789804,749.7734928000009,749.7736798800003,752.2758681000014,None,1,,,,,,,,elpida_23_10_23,shielded_hugin)4,2023-10-23_14h31.44.268,Oddball_task,2022.2.5,59.71675150452806,
standard,soundFiles/250Hz_44100Hz_16bit_05sec.wav',None,1000,12,9,129,3,,,,,752.292155000001,753.2766318000013,753.2764243800017,755.778830700001,None,1,,,,,,,,elpida_23_10_23,shielded_hugin)4,2023-10-23_14h31.44.268,Oddball_task,2022.2.5,59.71675150452806,
standard,soundFiles/250Hz_44100Hz_16bit_05sec.wav',None,1000,13,0,130,1,,,,,755.7954245000001,756.7794280000016,756.7796570800007,,None,1,,,,,,,,elpida_23_10_23,shielded_hugin)4,2023-10-23_14h31.44.268,Oddball_task,2022.2.5,59.71675150452806,
standard,soundFiles/250Hz_44100Hz_16bit_05sec.wav',None,1000,13,1,131,6,,,,,759.2814985000005,760.2651577000015,760.2649437800015,762.7678462000003,None,1,,,,,,,,elpida_23_10_23,shielded_hugin)4,2023-10-23_14h31.44.268,Oddball_task,2022.2.5,59.71675150452806,
standard,soundFiles/250Hz_44100Hz_16bit_05sec.wav',None,1000,13,2,132,2,,,,,762.7838583000012,763.7679306999999,763.7684509800007,766.2701872000016,None,1,,,,,,,,elpida_23_10_23,shielded_hugin)4,2023-10-23_14h31.44.268,Oddball_task,2022.2.5,59.71675150452806,
standard,soundFiles/250Hz_44100Hz_16bit_05sec.wav',None,1000,13,3,133,5,,,,,766.2870210000001,767.2714371000002,767.2715129800005,769.7733208000009,None,1,768.2724014000014,,,,,,,elpida_23_10_23,shielded_hugin)4,2023-10-23_14h31.44.268,Oddball_task,2022.2.5,59.71675150452806,
target,soundFiles/1200Hz_-3dBFS_3s_44.1kHz.wav',t,2000,13,4,134,4,,,,,769.7913177999999,770.7741054000016,770.7743475800004,773.2769157000002,t,1,,0.8100939999985712,,,,,,elpida_23_10_23,shielded_hugin)4,2023-10-23_14h31.44.268,Oddball_task,2022.2.5,59.71675150452806,
standard,soundFiles/250Hz_44100Hz_16bit_05sec.wav',None,1001,13,5,135,9,,,,,773.2928350000002,774.2771322000008,774.2773848800013,776.7790134000006,None,1,,,,,,,,elpida_23_10_23,shielded_hugin)4,2023-10-23_14h31.44.268,Oddball_task,2022.2.5,59.71675150452806,
standard,soundFiles/250Hz_44100Hz_16bit_05sec.wav',None,1000,13,6,136,8,,,,,776.796697400001,777.7634111000007,777.7638844800009,780.2653232000011,None,1,,,,,,,,elpida_23_10_23,shielded_hugin)4,2023-10-23_14h31.44.268,Oddball_task,2022.2.5,59.71675150452806,
standard,soundFiles/250Hz_44100Hz_16bit_05sec.wav',None,1000,13,7,137,7,,,,,780.2823695000006,781.2687841000006,781.2662646800005,783.769475000001,None,1,,,,,,,,elpida_23_10_23,shielded_hugin)4,2023-10-23_14h31.44.268,Oddball_task,2022.2.5,59.71675150452806,
standard,soundFiles/250Hz_44100Hz_16bit_05sec.wav',None,1000,13,8,138,0,,,,,783.7858753,784.7692684000012,784.7691907800005,787.2710991000004,None,1,,,,,,,,elpida_23_10_23,shielded_hugin)4,2023-10-23_14h31.44.268,Oddball_task,2022.2.5,59.71675150452806,
standard,soundFiles/250Hz_44100Hz_16bit_05sec.wav',None,1000,13,9,139,3,,,,,787.2883588000004,788.2735028000006,788.2723699800014,790.7746835000016,None,1,789.2731793000003,,,,,,,elpida_23_10_23,shielded_hugin)4,2023-10-23_14h31.44.268,Oddball_task,2022.2.5,59.71675150452806,
standard,soundFiles/250Hz_44100Hz_16bit_05sec.wav',None,1000,14,0,140,8,,,,,790.7914245000011,791.7767617000009,791.7753707800008,794.2777484000017,None,1,,,,,,,,elpida_23_10_23,shielded_hugin)4,2023-10-23_14h31.44.268,Oddball_task,2022.2.5,59.71675150452806,
standard,soundFiles/250Hz_44100Hz_16bit_05sec.wav',None,1000,14,1,141,5,,,,,794.2939505000013,795.2781436000005,795.2777404800005,797.7809061000007,None,1,,,,,,,,elpida_23_10_23,shielded_hugin)4,2023-10-23_14h31.44.268,Oddball_task,2022.2.5,59.71675150452806,
standard,soundFiles/250Hz_44100Hz_16bit_05sec.wav',None,1000,14,2,142,3,,,,,797.7970055000005,798.7647446999999,798.764325480001,801.2665594999999,None,1,,,,,,,,elpida_23_10_23,shielded_hugin)4,2023-10-23_14h31.44.268,Oddball_task,2022.2.5,59.71675150452806,
standard,soundFiles/250Hz_44100Hz_16bit_05sec.wav',None,1001,14,3,143,9,,,,,801.2831176,802.2675278000006,802.2673571800011,804.7691489000008,None,1,803.2684452000012,,,,,,,elpida_23_10_23,shielded_hugin)4,2023-10-23_14h31.44.268,Oddball_task,2022.2.5,59.71675150452806,
standard,soundFiles/250Hz_44100Hz_16bit_05sec.wav',None,1000,14,4,144,6,,,,,804.7864131000006,805.7703673000015,805.7701602800013,808.2730605000015,None,1,,,,,,,,elpida_23_10_23,shielded_hugin)4,2023-10-23_14h31.44.268,Oddball_task,2022.2.5,59.71675150452806,
target,soundFiles/1200Hz_-3dBFS_3s_44.1kHz.wav',t,2000,14,5,145,4,,,,,808.2899268000001,809.2735547000011,809.273401680001,811.7753745000009,t,1,,0.8157331999991584,,,,,,elpida_23_10_23,shielded_hugin)4,2023-10-23_14h31.44.268,Oddball_task,2022.2.5,59.71675150452806,
standard,soundFiles/250Hz_44100Hz_16bit_05sec.wav',None,1000,14,6,146,7,,,,,811.7922084000002,812.7777312000017,812.7772700800002,815.2782737000016,None,1,,,,,,,,elpida_23_10_23,shielded_hugin)4,2023-10-23_14h31.44.268,Oddball_task,2022.2.5,59.71675150452806,
standard,soundFiles/250Hz_44100Hz_16bit_05sec.wav',None,1000,14,7,147,0,,,,,815.2952689000012,816.2793118000009,816.2797199800012,818.7815992000014,None,1,,,,,,,,elpida_23_10_23,shielded_hugin)4,2023-10-23_14h31.44.268,Oddball_task,2022.2.5,59.71675150452806,
standard,soundFiles/250Hz_44100Hz_16bit_05sec.wav',None,1000,14,8,148,2,,,,,818.798647900001,819.7666749,819.7664814800015,822.2673649000008,None,1,,,,,,,,elpida_23_10_23,shielded_hugin)4,2023-10-23_14h31.44.268,Oddball_task,2022.2.5,59.71675150452806,
standard,soundFiles/250Hz_44100Hz_16bit_05sec.wav',None,1000,14,9,149,1,,,,,822.2840809000008,823.2681948000009,823.2683252800003,825.7700706000014,None,1,,,,,,,,elpida_23_10_23,shielded_hugin)4,2023-10-23_14h31.44.268,Oddball_task,2022.2.5,59.71675150452806,
standard,soundFiles/250Hz_44100Hz_16bit_05sec.wav',None,1000,15,0,150,5,,,,,825.7866408999998,826.7717881000008,826.7722274800004,829.2736015999999,None,1,,,,,,,,elpida_23_10_23,shielded_hugin)4,2023-10-23_14h31.44.268,Oddball_task,2022.2.5,59.71675150452806,
standard,soundFiles/250Hz_44100Hz_16bit_05sec.wav',None,1000,15,1,151,2,,,,,829.2902262000007,830.2738071000003,830.2742060800016,832.7760066999999,None,1,,,,,,,,elpida_23_10_23,shielded_hugin)4,2023-10-23_14h31.44.268,Oddball_task,2022.2.5,59.71675150452806,
standard,soundFiles/250Hz_44100Hz_16bit_05sec.wav',None,1000,15,2,152,8,,,,,832.7934052,833.7773121000009,833.7767042800011,836.2785961000009,None,1,,,,,,,,elpida_23_10_23,shielded_hugin)4,2023-10-23_14h31.44.268,Oddball_task,2022.2.5,59.71675150452806,
standard,soundFiles/250Hz_44100Hz_16bit_05sec.wav',None,1001,15,3,153,9,,,,,836.2962097,837.2631108000005,837.2640338800016,839.7647121999998,None,1,,,,,,,,elpida_23_10_23,shielded_hugin)4,2023-10-23_14h31.44.268,Oddball_task,2022.2.5,59.71675150452806,
standard,soundFiles/250Hz_44100Hz_16bit_05sec.wav',None,1000,15,4,154,3,,,,,839.7815630000005,840.7667412999999,840.7658425800006,843.2680345000008,None,1,,,,,,,,elpida_23_10_23,shielded_hugin)4,2023-10-23_14h31.44.268,Oddball_task,2022.2.5,59.71675150452806,
standard,soundFiles/250Hz_44100Hz_16bit_05sec.wav',None,1000,15,5,155,1,,,,,843.285100000001,844.2690243000015,844.2692740800018,846.771224600001,None,1,,,,,,,,elpida_23_10_23,shielded_hugin)4,2023-10-23_14h31.44.268,Oddball_task,2022.2.5,59.71675150452806,
standard,soundFiles/250Hz_44100Hz_16bit_05sec.wav',None,1000,15,6,156,7,,,,,846.7892280000015,847.7721976000012,847.772313080001,850.2743554000008,None,1,,,,,,,,elpida_23_10_23,shielded_hugin)4,2023-10-23_14h31.44.268,Oddball_task,2022.2.5,59.71675150452806,
target,soundFiles/1200Hz_-3dBFS_3s_44.1kHz.wav',t,2000,15,7,157,4,,,,,850.2909006000009,851.2750518000012,851.27501068,853.7772783,t,1,,0.7483174999997573,,,,,,elpida_23_10_23,shielded_hugin)4,2023-10-23_14h31.44.268,Oddball_task,2022.2.5,59.71675150452806,
standard,soundFiles/250Hz_44100Hz_16bit_05sec.wav',None,1000,15,8,158,0,,,,,853.7944108000011,854.7782207,854.7782754800015,857.2808825000011,None,1,,,,,,,,elpida_23_10_23,shielded_hugin)4,2023-10-23_14h31.44.268,Oddball_task,2022.2.5,59.71675150452806,
standard,soundFiles/250Hz_44100Hz_16bit_05sec.wav',None,1000,15,9,159,6,,,,,857.2971891000016,858.2638790000001,858.2637636800015,860.7661597000006,None,1,,,,,,,,elpida_23_10_23,shielded_hugin)4,2023-10-23_14h31.44.268,Oddball_task,2022.2.5,59.71675150452806,
standard,soundFiles/250Hz_44100Hz_16bit_05sec.wav',None,1000,16,0,160,5,,,,,860.7831125000012,861.7672900000016,861.7673924800007,864.2693189000001,None,1,,,,,,,,elpida_23_10_23,shielded_hugin)4,2023-10-23_14h31.44.268,Oddball_task,2022.2.5,59.71675150452806,
target,soundFiles/1200Hz_-3dBFS_3s_44.1kHz.wav',t,2000,16,1,161,4,,,,,864.2863832000003,865.2702543000014,865.2702224800001,867.7737710000001,t,1,,0.8393281000007846,,,,,,elpida_23_10_23,shielded_hugin)4,2023-10-23_14h31.44.268,Oddball_task,2022.2.5,59.71675150452806,
standard,soundFiles/250Hz_44100Hz_16bit_05sec.wav',None,1000,16,2,162,7,,,,,867.7899578000015,868.7733877999999,868.7736459800004,871.2762122000004,None,1,869.7740486000002,,,,,,,elpida_23_10_23,shielded_hugin)4,2023-10-23_14h31.44.268,Oddball_task,2022.2.5,59.71675150452806,
standard,soundFiles/250Hz_44100Hz_16bit_05sec.wav',None,1000,16,3,163,3,,,,,871.2920574,872.2765726000016,872.2764593800008,874.7783586000005,None,1,,,,,,,,elpida_23_10_23,shielded_hugin)4,2023-10-23_14h31.44.268,Oddball_task,2022.2.5,59.71675150452806,
standard,soundFiles/250Hz_44100Hz_16bit_05sec.wav',None,1000,16,4,164,8,,,,,874.7951695000011,875.780227700001,875.77969808,878.2809649999999,None,1,,,,,,,,elpida_23_10_23,shielded_hugin)4,2023-10-23_14h31.44.268,Oddball_task,2022.2.5,59.71675150452806,
standard,soundFiles/250Hz_44100Hz_16bit_05sec.wav',None,1000,16,5,165,6,,,,,878.2979069000012,879.2652135000008,879.265134580001,881.7674017000008,None,1,,,,,,,,elpida_23_10_23,shielded_hugin)4,2023-10-23_14h31.44.268,Oddball_task,2022.2.5,59.71675150452806,
standard,soundFiles/250Hz_44100Hz_16bit_05sec.wav',None,1001,16,6,166,9,,,,,881.7842584999999,882.7686386000005,882.7687975800005,885.2703206000006,None,1,883.7687014000003,,,,,,,elpida_23_10_23,shielded_hugin)4,2023-10-23_14h31.44.268,Oddball_task,2022.2.5,59.71675150452806,
standard,soundFiles/250Hz_44100Hz_16bit_05sec.wav',None,1000,16,7,167,0,,,,,885.2874124000009,886.270610900001,886.2711179800013,888.7734292000005,None,1,,,,,,,,elpida_23_10_23,shielded_hugin)4,2023-10-23_14h31.44.268,Oddball_task,2022.2.5,59.71675150452806,
standard,soundFiles/250Hz_44100Hz_16bit_05sec.wav',None,1000,16,8,168,1,,,,,888.7916068000013,889.7741237000009,889.7745368800012,892.2766836999999,None,1,890.7750967000011,,,,,,,elpida_23_10_23,shielded_hugin)4,2023-10-23_14h31.44.268,Oddball_task,2022.2.5,59.71675150452806,
standard,soundFiles/250Hz_44100Hz_16bit_05sec.wav',None,1000,16,9,169,2,,,,,892.2932579000008,893.2768592000011,893.2767364800007,895.778930800001,None,1,,,,,,,,elpida_23_10_23,shielded_hugin)4,2023-10-23_14h31.44.268,Oddball_task,2022.2.5,59.71675150452806,
standard,soundFiles/250Hz_44100Hz_16bit_05sec.wav',None,1000,17,0,170,1,,,,,895.7955688000002,896.7641325000004,896.7639596800005,899.2652053000002,None,1,,,,,,,,elpida_23_10_23,shielded_hugin)4,2023-10-23_14h31.44.268,Oddball_task,2022.2.5,59.71675150452806,
standard,soundFiles/250Hz_44100Hz_16bit_05sec.wav',None,1000,17,1,171,7,,,,,899.2822887000002,900.2661435000009,900.2660126800007,902.7694598000016,None,1,,,,,,,,elpida_23_10_23,shielded_hugin)4,2023-10-23_14h31.44.268,Oddball_task,2022.2.5,59.71675150452806,
standard,soundFiles/250Hz_44100Hz_16bit_05sec.wav',None,1000,17,2,172,0,,,,,902.7849718000016,903.768915300001,903.7692376800011,906.2711794000006,None,1,904.7697254000013,,,,,,,elpida_23_10_23,shielded_hugin)4,2023-10-23_14h31.44.268,Oddball_task,2022.2.5,59.71675150452806,
standard,soundFiles/250Hz_44100Hz_16bit_05sec.wav',None,1000,17,3,173,2,,,,,906.287840500001,907.2714034,907.2716148800015,909.7746341000002,None,1,,,,,,,,elpida_23_10_23,shielded_hugin)4,2023-10-23_14h31.44.268,Oddball_task,2022.2.5,59.71675150452806,
standard,soundFiles/250Hz_44100Hz_16bit_05sec.wav',None,1001,17,4,174,9,,,,,909.7910755000012,910.7748371000016,910.7750414800017,913.276786800001,None,1,,,,,,,,elpida_23_10_23,shielded_hugin)4,2023-10-23_14h31.44.268,Oddball_task,2022.2.5,59.71675150452806,
standard,soundFiles/250Hz_44100Hz_16bit_05sec.wav',None,1000,17,5,175,5,,,,,913.2936965000008,914.2778796000002,914.2778895800008,916.7804581,None,1,,,,,,,,elpida_23_10_23,shielded_hugin)4,2023-10-23_14h31.44.268,Oddball_task,2022.2.5,59.71675150452806,
standard,soundFiles/250Hz_44100Hz_16bit_05sec.wav',None,1000,17,6,176,6,,,,,916.7972647000006,917.7640803000013,917.7644579800004,920.2667864000014,None,1,,,,,,,,elpida_23_10_23,shielded_hugin)4,2023-10-23_14h31.44.268,Oddball_task,2022.2.5,59.71675150452806,
standard,soundFiles/250Hz_44100Hz_16bit_05sec.wav',None,1000,17,7,177,3,,,,,920.2832604000014,921.2674267000002,921.2673181800006,923.7696926000008,None,1,,,,,,,,elpida_23_10_23,shielded_hugin)4,2023-10-23_14h31.44.268,Oddball_task,2022.2.5,59.71675150452806,
standard,soundFiles/250Hz_44100Hz_16bit_05sec.wav',None,1000,17,8,178,8,,,,,923.7861799000002,924.7699217000009,924.7703732800006,927.2727782000002,None,1,,,,,,,,elpida_23_10_23,shielded_hugin)4,2023-10-23_14h31.44.268,Oddball_task,2022.2.5,59.71675150452806,
target,soundFiles/1200Hz_-3dBFS_3s_44.1kHz.wav',t,2000,17,9,179,4,,,,,927.2889553000005,928.2736312000015,928.2732745800009,930.7750754000008,t,1,,0.694118499999604,,,,,,elpida_23_10_23,shielded_hugin)4,2023-10-23_14h31.44.268,Oddball_task,2022.2.5,59.71675150452806,
standard,soundFiles/250Hz_44100Hz_16bit_05sec.wav',None,1000,18,0,180,8,,,,,930.7923522000001,931.7763414000001,931.7760374800006,934.2819689000007,None,1,932.7769829000008,,,,,,,elpida_23_10_23,shielded_hugin)4,2023-10-23_14h31.44.268,Oddball_task,2022.2.5,59.71675150452806,
standard,soundFiles/250Hz_44100Hz_16bit_05sec.wav',None,1000,18,1,181,5,,,,,934.3122855000001,935.2791870000001,935.2791012800013,937.7808015999999,None,1,,,,,,,,elpida_23_10_23,shielded_hugin)4,2023-10-23_14h31.44.268,Oddball_task,2022.2.5,59.71675150452806,
standard,soundFiles/250Hz_44100Hz_16bit_05sec.wav',None,1000,18,2,182,3,,,,,937.7974398000006,938.7648922000008,938.7653504800006,941.2668068000003,None,1,,,,,,,,elpida_23_10_23,shielded_hugin)4,2023-10-23_14h31.44.268,Oddball_task,2022.2.5,59.71675150452806,
standard,soundFiles/250Hz_44100Hz_16bit_05sec.wav',None,1001,18,3,183,9,,,,,941.2834910000001,942.2678591000004,942.2682998800016,944.7704403000007,None,1,,,,,,,,elpida_23_10_23,shielded_hugin)4,2023-10-23_14h31.44.268,Oddball_task,2022.2.5,59.71675150452806,
standard,soundFiles/250Hz_44100Hz_16bit_05sec.wav',None,1000,18,4,184,2,,,,,944.7872489000001,945.771597500001,945.7713812800017,948.2733202,None,1,,,,,,,,elpida_23_10_23,shielded_hugin)4,2023-10-23_14h31.44.268,Oddball_task,2022.2.5,59.71675150452806,
standard,soundFiles/250Hz_44100Hz_16bit_05sec.wav',None,1000,18,5,185,0,,,,,948.2894074000014,949.2738142000017,949.2734884800017,951.7764164,None,1,,,,,,,,elpida_23_10_23,shielded_hugin)4,2023-10-23_14h31.44.268,Oddball_task,2022.2.5,59.71675150452806,
target,soundFiles/1200Hz_-3dBFS_3s_44.1kHz.wav',t,2000,18,6,186,4,,,,,951.7925356000014,952.7771311000015,952.7765087800004,955.2785774000004,t,1,,0.7515933999984554,,,,,,elpida_23_10_23,shielded_hugin)4,2023-10-23_14h31.44.268,Oddball_task,2022.2.5,59.71675150452806,
standard,soundFiles/250Hz_44100Hz_16bit_05sec.wav',None,1000,18,7,187,7,,,,,955.2953253000014,956.2793040000015,956.2792143800003,,None,1,,,,,,,,elpida_23_10_23,shielded_hugin)4,2023-10-23_14h31.44.268,Oddball_task,2022.2.5,59.71675150452806,
standard,soundFiles/250Hz_44100Hz_16bit_05sec.wav',None,1000,18,8,188,6,,,,,958.7816233000012,959.7659194000007,959.7660236800008,962.2684549000005,None,1,,,,,,,,elpida_23_10_23,shielded_hugin)4,2023-10-23_14h31.44.268,Oddball_task,2022.2.5,59.71675150452806,
standard,soundFiles/250Hz_44100Hz_16bit_05sec.wav',None,1000,18,9,189,1,,,,,962.2847051000008,963.2686979000009,963.2687655800006,965.7708905,None,1,964.2694929000008,,,,,,,elpida_23_10_23,shielded_hugin)4,2023-10-23_14h31.44.268,Oddball_task,2022.2.5,59.71675150452806,
standard,soundFiles/250Hz_44100Hz_16bit_05sec.wav',None,1000,19,0,190,0,,,,,965.7877444000005,966.7718882000008,966.7714318800014,969.2735960999998,None,1,,,,,,,,elpida_23_10_23,shielded_hugin)4,2023-10-23_14h31.44.268,Oddball_task,2022.2.5,59.71675150452806,
standard,soundFiles/250Hz_44100Hz_16bit_05sec.wav',None,1001,19,1,191,9,,,,,969.2903735,970.2743178000001,970.2743150800003,972.7766219000005,None,1,,,,,,,,elpida_23_10_23,shielded_hugin)4,2023-10-23_14h31.44.268,Oddball_task,2022.2.5,59.71675150452806,
standard,soundFiles/250Hz_44100Hz_16bit_05sec.wav',None,1000,19,2,192,1,,,,,972.7931392999999,973.7771167999999,973.77725858,976.2798057,None,1,,,,,,,,elpida_23_10_23,shielded_hugin)4,2023-10-23_14h31.44.268,Oddball_task,2022.2.5,59.71675150452806,
standard,soundFiles/250Hz_44100Hz_16bit_05sec.wav',None,1000,19,3,193,7,,,,,976.2965221000013,977.2638406000005,977.2638521800005,979.7661650000009,None,1,,,,,,,,elpida_23_10_23,shielded_hugin)4,2023-10-23_14h31.44.268,Oddball_task,2022.2.5,59.71675150452806,
standard,soundFiles/250Hz_44100Hz_16bit_05sec.wav',None,1000,19,4,194,3,,,,,979.7826045000002,980.7667883000013,980.7670646800003,983.269146300001,None,1,,,,,,,,elpida_23_10_23,shielded_hugin)4,2023-10-23_14h31.44.268,Oddball_task,2022.2.5,59.71675150452806,
standard,soundFiles/250Hz_44100Hz_16bit_05sec.wav',None,1000,19,5,195,2,,,,,983.2862581000009,984.2692634000014,984.2693365800011,986.7723034999999,None,1,985.2703544000015,,,,,,,elpida_23_10_23,shielded_hugin)4,2023-10-23_14h31.44.268,Oddball_task,2022.2.5,59.71675150452806,
standard,soundFiles/250Hz_44100Hz_16bit_05sec.wav',None,1000,19,6,196,5,,,,,986.7891384000013,987.7731048000005,987.7731262800013,990.2752125000006,None,1,,,,,,,,elpida_23_10_23,shielded_hugin)4,2023-10-23_14h31.44.268,Oddball_task,2022.2.5,59.71675150452806,
standard,soundFiles/250Hz_44100Hz_16bit_05sec.wav',None,1000,19,7,197,6,,,,,990.2923469000016,991.276973,991.2756675800016,993.7777811000014,None,1,992.2770885000009,,,,,,,elpida_23_10_23,shielded_hugin)4,2023-10-23_14h31.44.268,Oddball_task,2022.2.5,59.71675150452806,
target,soundFiles/1200Hz_-3dBFS_3s_44.1kHz.wav',t,2000,19,8,198,4,,,,,993.7944345000014,994.7788196000001,994.77927788,,t,1,,0.8093524999985675,,,,,,elpida_23_10_23,shielded_hugin)4,2023-10-23_14h31.44.268,Oddball_task,2022.2.5,59.71675150452806,
standard,soundFiles/250Hz_44100Hz_16bit_05sec.wav',None,1000,19,9,199,8,,,,,997.2810023000002,998.2652957999999,998.2654520800012,1000.7674978000014,None,1,,,,,,,,elpida_23_10_23,shielded_hugin)4,2023-10-23_14h31.44.268,Oddball_task,2022.2.5,59.71675150452806,
target,soundFiles/1200Hz_-3dBFS_3s_44.1kHz.wav',t,2000,20,0,200,4,,,,,1000.7838549000007,1001.7678650000016,1001.7673260800008,1004.2704913000016,t,1,,0.85915550000027,,,,,,elpida_23_10_23,shielded_hugin)4,2023-10-23_14h31.44.268,Oddball_task,2022.2.5,59.71675150452806,
standard,soundFiles/250Hz_44100Hz_16bit_05sec.wav',None,1000,20,1,201,3,,,,,1004.2867499000004,1005.2704872000013,1005.2703159800009,1007.7737776000013,None,1,,,,,,,,elpida_23_10_23,shielded_hugin)4,2023-10-23_14h31.44.268,Oddball_task,2022.2.5,59.71675150452806,
standard,soundFiles/250Hz_44100Hz_16bit_05sec.wav',None,1001,20,2,202,9,,,,,1007.7903415000001,1008.7736324000016,1008.7733215800005,1011.2759586000011,None,1,,,,,,,,elpida_23_10_23,shielded_hugin)4,2023-10-23_14h31.44.268,Oddball_task,2022.2.5,59.71675150452806,
standard,soundFiles/250Hz_44100Hz_16bit_05sec.wav',None,1000,20,3,203,0,,,,,1011.292373100001,1012.2765294000001,1012.2763494800007,1014.7793056999999,None,1,1013.2777633000005,,,,,,,elpida_23_10_23,shielded_hugin)4,2023-10-23_14h31.44.268,Oddball_task,2022.2.5,59.71675150452806,
standard,soundFiles/250Hz_44100Hz_16bit_05sec.wav',None,1000,20,4,204,5,,,,,1014.7954603000017,1015.7799904000003,1015.7797262800001,,None,1,,,,,,,,elpida_23_10_23,shielded_hugin)4,2023-10-23_14h31.44.268,Oddball_task,2022.2.5,59.71675150452806,
standard,soundFiles/250Hz_44100Hz_16bit_05sec.wav',None,1000,20,5,205,2,,,,,1018.2820866000002,1019.2657071000012,1019.2659555800007,1021.7679128,None,1,,,,,,,,elpida_23_10_23,shielded_hugin)4,2023-10-23_14h31.44.268,Oddball_task,2022.2.5,59.71675150452806,
standard,soundFiles/250Hz_44100Hz_16bit_05sec.wav',None,1000,20,6,206,7,,,,,1021.7850006000008,1022.7685963000004,1022.7686268800013,1025.271117100001,None,1,,,,,,,,elpida_23_10_23,shielded_hugin)4,2023-10-23_14h31.44.268,Oddball_task,2022.2.5,59.71675150452806,
standard,soundFiles/250Hz_44100Hz_16bit_05sec.wav',None,1000,20,7,207,6,,,,,1025.2871227000014,1026.2719995000007,1026.271566580001,1028.7736236,None,1,,,,,,,,elpida_23_10_23,shielded_hugin)4,2023-10-23_14h31.44.268,Oddball_task,2022.2.5,59.71675150452806,
standard,soundFiles/250Hz_44100Hz_16bit_05sec.wav',None,1000,20,8,208,8,,,,,1028.7903738000005,1029.7754751000011,1029.7747695800012,1032.2767022000007,None,1,,,,,,,,elpida_23_10_23,shielded_hugin)4,2023-10-23_14h31.44.268,Oddball_task,2022.2.5,59.71675150452806,
standard,soundFiles/250Hz_44100Hz_16bit_05sec.wav',None,1000,20,9,209,1,,,,,1032.294659000001,1033.2782051000013,1033.2780118800006,1035.7798985000009,None,1,,,,,,,,elpida_23_10_23,shielded_hugin)4,2023-10-23_14h31.44.268,Oddball_task,2022.2.5,59.71675150452806,
standard,soundFiles/250Hz_44100Hz_16bit_05sec.wav',None,1000,21,0,210,5,,,,,1035.7982881000007,1036.7640038000009,1036.7643571800004,1039.2664365,None,1,,,,,,,,elpida_23_10_23,shielded_hugin)4,2023-10-23_14h31.44.268,Oddball_task,2022.2.5,59.71675150452806,
standard,soundFiles/250Hz_44100Hz_16bit_05sec.wav',None,1000,21,1,211,3,,,,,1039.2825008,1040.2669819000002,1040.2666665800011,1042.7685021000016,None,1,,,,,,,,elpida_23_10_23,shielded_hugin)4,2023-10-23_14h31.44.268,Oddball_task,2022.2.5,59.71675150452806,
standard,soundFiles/250Hz_44100Hz_16bit_05sec.wav',None,1000,21,2,212,2,,,,,1042.7860054000012,1043.7697585000005,1043.77068998,1046.2715216000015,None,1,,,,,,,,elpida_23_10_23,shielded_hugin)4,2023-10-23_14h31.44.268,Oddball_task,2022.2.5,59.71675150452806,
standard,soundFiles/250Hz_44100Hz_16bit_05sec.wav',None,1000,21,3,213,6,,,,,1046.2893265000002,1047.2733061,1047.2729011800006,1049.7747318000002,None,1,,,,,,,,elpida_23_10_23,shielded_hugin)4,2023-10-23_14h31.44.268,Oddball_task,2022.2.5,59.71675150452806,
standard,soundFiles/250Hz_44100Hz_16bit_05sec.wav',None,1000,21,4,214,7,,,,,1049.7920747000007,1050.7766463000007,1050.7768983800001,1053.277457100001,None,1,,,,,,,,elpida_23_10_23,shielded_hugin)4,2023-10-23_14h31.44.268,Oddball_task,2022.2.5,59.71675150452806,
target,soundFiles/1200Hz_-3dBFS_3s_44.1kHz.wav',t,2000,21,5,215,4,,,,,1053.2945127000003,1054.2784078000004,1054.2789781800006,1056.7805051000014,t,1,,0.825893699999142,,,,,,elpida_23_10_23,shielded_hugin)4,2023-10-23_14h31.44.268,Oddball_task,2022.2.5,59.71675150452806,
standard,soundFiles/250Hz_44100Hz_16bit_05sec.wav',None,1000,21,6,216,0,,,,,1056.7978158000005,1057.7649082000007,1057.765460180001,1060.267691500001,None,1,,,,,,,,elpida_23_10_23,shielded_hugin)4,2023-10-23_14h31.44.268,Oddball_task,2022.2.5,59.71675150452806,
standard,soundFiles/250Hz_44100Hz_16bit_05sec.wav',None,1000,21,7,217,1,,,,,1060.2848281000006,1061.2684776000006,1061.268331580001,1063.7692978000014,None,1,,,,,,,,elpida_23_10_23,shielded_hugin)4,2023-10-23_14h31.44.268,Oddball_task,2022.2.5,59.71675150452806,
standard,soundFiles/250Hz_44100Hz_16bit_05sec.wav',None,1001,21,8,218,9,,,,,1063.7862228000013,1064.7706287,1064.7707259800013,1067.2727081000012,None,1,,,,,,,,elpida_23_10_23,shielded_hugin)4,2023-10-23_14h31.44.268,Oddball_task,2022.2.5,59.71675150452806,
standard,soundFiles/250Hz_44100Hz_16bit_05sec.wav',None,1000,21,9,219,8,,,,,1067.2896741000004,1068.2741718000016,1068.2741736800003,1070.7757619000004,None,1,,,,,,,,elpida_23_10_23,shielded_hugin)4,2023-10-23_14h31.44.268,Oddball_task,2022.2.5,59.71675150452806,
standard,soundFiles/250Hz_44100Hz_16bit_05sec.wav',None,1001,22,0,220,9,,,,,1070.7928035000004,1071.7765585000016,1071.7763950800004,1074.2794054000005,None,1,,,,,,,,elpida_23_10_23,shielded_hugin)4,2023-10-23_14h31.44.268,Oddball_task,2022.2.5,59.71675150452806,
standard,soundFiles/250Hz_44100Hz_16bit_05sec.wav',None,1000,22,1,221,6,,,,,1074.2961220000016,1075.2796836000016,1075.2797889800008,,None,1,,,,,,,,elpida_23_10_23,shielded_hugin)4,2023-10-23_14h31.44.268,Oddball_task,2022.2.5,59.71675150452806,
standard,soundFiles/250Hz_44100Hz_16bit_05sec.wav',None,1000,22,2,222,8,,,,,1077.7823379000001,1078.7663929999999,1078.7658571800007,1081.2674000000006,None,1,,,,,,,,elpida_23_10_23,shielded_hugin)4,2023-10-23_14h31.44.268,Oddball_task,2022.2.5,59.71675150452806,
standard,soundFiles/250Hz_44100Hz_16bit_05sec.wav',None,1000,22,3,223,0,,,,,1081.2848342000016,1082.2685774000001,1082.2697613800015,1084.7705911000012,None,1,,,,,,,,elpida_23_10_23,shielded_hugin)4,2023-10-23_14h31.44.268,Oddball_task,2022.2.5,59.71675150452806,
standard,soundFiles/250Hz_44100Hz_16bit_05sec.wav',None,1000,22,4,224,7,,,,,1084.7876402000002,1085.7712343000003,1085.771767480001,1088.273855200001,None,1,,,,,,,,elpida_23_10_23,shielded_hugin)4,2023-10-23_14h31.44.268,Oddball_task,2022.2.5,59.71675150452806,
standard,soundFiles/250Hz_44100Hz_16bit_05sec.wav',None,1000,22,5,225,1,,,,,1088.2914272000016,1089.2747581000003,1089.2750008799999,1091.7777525000001,None,1,,,,,,,,elpida_23_10_23,shielded_hugin)4,2023-10-23_14h31.44.268,Oddball_task,2022.2.5,59.71675150452806,
standard,soundFiles/250Hz_44100Hz_16bit_05sec.wav',None,1000,22,6,226,5,,,,,1091.7945304000004,1092.7776710000016,1092.7781237800014,1095.280326600001,None,1,1093.7784799,,,,,,,elpida_23_10_23,shielded_hugin)4,2023-10-23_14h31.44.268,Oddball_task,2022.2.5,59.71675150452806,
standard,soundFiles/250Hz_44100Hz_16bit_05sec.wav',None,1000,22,7,227,3,,,,,1095.2979734,1096.264306000001,1096.2641406799999,1098.7661765000012,None,1,,,,,,,,elpida_23_10_23,shielded_hugin)4,2023-10-23_14h31.44.268,Oddball_task,2022.2.5,59.71675150452806,
target,soundFiles/1200Hz_-3dBFS_3s_44.1kHz.wav',t,2000,22,8,228,4,,,,,1098.7824893000015,1099.7663815000014,1099.7663728800003,1102.2687462000013,t,1,,0.7759433999981411,,,,,,elpida_23_10_23,shielded_hugin)4,2023-10-23_14h31.44.268,Oddball_task,2022.2.5,59.71675150452806,
standard,soundFiles/250Hz_44100Hz_16bit_05sec.wav',None,1000,22,9,229,2,,,,,1102.2865533000004,1103.2694229000008,1103.2697907800016,1105.771970400001,None,1,,,,,,,,elpida_23_10_23,shielded_hugin)4,2023-10-23_14h31.44.268,Oddball_task,2022.2.5,59.71675150452806,
standard,soundFiles/250Hz_44100Hz_16bit_05sec.wav',None,1000,23,0,230,5,,,,,1105.7883059000014,1106.7731659,1106.7732826800006,1109.2758685000008,None,1,,,,,,,,elpida_23_10_23,shielded_hugin)4,2023-10-23_14h31.44.268,Oddball_task,2022.2.5,59.71675150452806,
standard,soundFiles/250Hz_44100Hz_16bit_05sec.wav',None,1001,23,1,231,9,,,,,1109.2919183000013,1110.2765884,1110.2760608800004,1112.7790632000015,None,1,,,,,,,,elpida_23_10_23,shielded_hugin)4,2023-10-23_14h31.44.268,Oddball_task,2022.2.5,59.71675150452806,
standard,soundFiles/250Hz_44100Hz_16bit_05sec.wav',None,1000,23,2,232,2,,,,,1112.7948265000014,1113.7785556,1113.778333480001,1116.2812154000003,None,1,1114.7800000000007,,,,,,,elpida_23_10_23,shielded_hugin)4,2023-10-23_14h31.44.268,Oddball_task,2022.2.5,59.71675150452806,
standard,soundFiles/250Hz_44100Hz_16bit_05sec.wav',None,1000,23,3,233,0,,,,,1116.2974339000011,1117.2643366000011,1117.264792280001,1119.7667681000003,None,1,,,,,,,,elpida_23_10_23,shielded_hugin)4,2023-10-23_14h31.44.268,Oddball_task,2022.2.5,59.71675150452806,
standard,soundFiles/250Hz_44100Hz_16bit_05sec.wav',None,1000,23,4,234,1,,,,,1119.7835952000005,1120.7674825000013,1120.7677858800002,1123.2697830000016,None,1,,,,,,,,elpida_23_10_23,shielded_hugin)4,2023-10-23_14h31.44.268,Oddball_task,2022.2.5,59.71675150452806,
standard,soundFiles/250Hz_44100Hz_16bit_05sec.wav',None,1000,23,5,235,3,,,,,1123.2875148000003,1124.2708317000015,1124.2705476800006,1126.7728945,None,1,,,,,,,,elpida_23_10_23,shielded_hugin)4,2023-10-23_14h31.44.268,Oddball_task,2022.2.5,59.71675150452806,
standard,soundFiles/250Hz_44100Hz_16bit_05sec.wav',None,1000,23,6,236,8,,,,,1126.789465400001,1127.773443,1127.7738171800015,1130.2759088000003,None,1,,,,,,,,elpida_23_10_23,shielded_hugin)4,2023-10-23_14h31.44.268,Oddball_task,2022.2.5,59.71675150452806,
standard,soundFiles/250Hz_44100Hz_16bit_05sec.wav',None,1000,23,7,237,7,,,,,1130.2925739000002,1131.2766025,1131.2768859800003,1133.7790752,None,1,,,,,,,,elpida_23_10_23,shielded_hugin)4,2023-10-23_14h31.44.268,Oddball_task,2022.2.5,59.71675150452806,
standard,soundFiles/250Hz_44100Hz_16bit_05sec.wav',None,1000,23,8,238,6,,,,,1133.796387800001,1134.7634344000016,1134.7635547800005,1137.2650741000016,None,1,,,,,,,,elpida_23_10_23,shielded_hugin)4,2023-10-23_14h31.44.268,Oddball_task,2022.2.5,59.71675150452806,
target,soundFiles/1200Hz_-3dBFS_3s_44.1kHz.wav',t,2000,23,9,239,4,,,,,1137.281949100001,1138.2663434000006,1138.2669263800003,1140.7685009000015,t,1,,0.861719999998968,,,,,,elpida_23_10_23,shielded_hugin)4,2023-10-23_14h31.44.268,Oddball_task,2022.2.5,59.71675150452806,
standard,soundFiles/250Hz_44100Hz_16bit_05sec.wav',None,1000,24,0,240,6,,,,,1140.7846095000004,1141.7681079000013,1141.7687397800005,1144.2716824,None,1,,,,,,,,elpida_23_10_23,shielded_hugin)4,2023-10-23_14h31.44.268,Oddball_task,2022.2.5,59.71675150452806,
target,soundFiles/1200Hz_-3dBFS_3s_44.1kHz.wav',t,2000,24,1,241,4,,,,,1144.2877077000012,1145.2713698000007,1145.2719561800009,1147.7736157,t,1,,0.7486407999986113,,,,,,elpida_23_10_23,shielded_hugin)4,2023-10-23_14h31.44.268,Oddball_task,2022.2.5,59.71675150452806,
standard,soundFiles/250Hz_44100Hz_16bit_05sec.wav',None,1000,24,2,242,0,,,,,1147.7902805000012,1148.774586200001,1148.7747770800001,1151.2768004000009,None,1,,,,,,,,elpida_23_10_23,shielded_hugin)4,2023-10-23_14h31.44.268,Oddball_task,2022.2.5,59.71675150452806,
standard,soundFiles/250Hz_44100Hz_16bit_05sec.wav',None,1000,24,3,243,3,,,,,1151.293384300001,1152.2779547999999,1152.2774369800013,1154.779828300001,None,1,,,,,,,,elpida_23_10_23,shielded_hugin)4,2023-10-23_14h31.44.268,Oddball_task,2022.2.5,59.71675150452806,
standard,soundFiles/250Hz_44100Hz_16bit_05sec.wav',None,1000,24,4,244,1,,,,,1154.7965076,1155.7643220999998,1155.76443358,1158.266039,None,1,,,,,,,,elpida_23_10_23,shielded_hugin)4,2023-10-23_14h31.44.268,Oddball_task,2022.2.5,59.71675150452806,
standard,soundFiles/250Hz_44100Hz_16bit_05sec.wav',None,1000,24,5,245,2,,,,,1158.282717600001,1159.2675470000013,1159.26694498,1161.7686059000007,None,1,,,,,,,,elpida_23_10_23,shielded_hugin)4,2023-10-23_14h31.44.268,Oddball_task,2022.2.5,59.71675150452806,
standard,soundFiles/250Hz_44100Hz_16bit_05sec.wav',None,1000,24,6,246,5,,,,,1161.7854052000002,1162.7694145000005,1162.7698909800006,1165.2718736000006,None,1,,,,,,,,elpida_23_10_23,shielded_hugin)4,2023-10-23_14h31.44.268,Oddball_task,2022.2.5,59.71675150452806,
standard,soundFiles/250Hz_44100Hz_16bit_05sec.wav',None,1000,24,7,247,7,,,,,1165.2881963,1166.2729366000003,1166.2726999800002,1168.7748635000007,None,1,,,,,,,,elpida_23_10_23,shielded_hugin)4,2023-10-23_14h31.44.268,Oddball_task,2022.2.5,59.71675150452806,
standard,soundFiles/250Hz_44100Hz_16bit_05sec.wav',None,1000,24,8,248,8,,,,,1168.7916258000005,1169.7756966000015,1169.7759267800016,1172.2779199000015,None,1,,,,,,,,elpida_23_10_23,shielded_hugin)4,2023-10-23_14h31.44.268,Oddball_task,2022.2.5,59.71675150452806,
standard,soundFiles/250Hz_44100Hz_16bit_05sec.wav',None,1001,24,9,249,9,,,,,1172.2946885000001,1173.2787003000012,1173.27816088,1175.7802121000004,None,1,,,,,,,,elpida_23_10_23,shielded_hugin)4,2023-10-23_14h31.44.268,Oddball_task,2022.2.5,59.71675150452806,
standard,soundFiles/250Hz_44100Hz_16bit_05sec.wav',None,1000,25,0,250,3,,,,,1175.7966964000007,1176.7646963000007,1176.7648917800002,1179.2665634000005,None,1,,,,,,,,elpida_23_10_23,shielded_hugin)4,2023-10-23_14h31.44.268,Oddball_task,2022.2.5,59.71675150452806,
standard,soundFiles/250Hz_44100Hz_16bit_05sec.wav',None,1000,25,1,251,7,,,,,1179.2828921,1180.2675142000007,1180.2680306800016,1182.7693749999999,None,1,,,,,,,,elpida_23_10_23,shielded_hugin)4,2023-10-23_14h31.44.268,Oddball_task,2022.2.5,59.71675150452806,
standard,soundFiles/250Hz_44100Hz_16bit_05sec.wav',None,1000,25,2,252,0,,,,,1182.786367300001,1183.7705948000003,1183.770937580001,1186.2742174000014,None,1,,,,,,,,elpida_23_10_23,shielded_hugin)4,2023-10-23_14h31.44.268,Oddball_task,2022.2.5,59.71675150452806,
standard,soundFiles/250Hz_44100Hz_16bit_05sec.wav',None,1000,25,3,253,1,,,,,1186.2896943000014,1187.2730529,1187.2734978800004,1189.775212300001,None,1,,,,,,,,elpida_23_10_23,shielded_hugin)4,2023-10-23_14h31.44.268,Oddball_task,2022.2.5,59.71675150452806,
standard,soundFiles/250Hz_44100Hz_16bit_05sec.wav',None,1000,25,4,254,5,,,,,1189.791602700001,1190.777011600001,1190.777408280001,1193.2786822000016,None,1,,,,,,,,elpida_23_10_23,shielded_hugin)4,2023-10-23_14h31.44.268,Oddball_task,2022.2.5,59.71675150452806,
target,soundFiles/1200Hz_-3dBFS_3s_44.1kHz.wav',t,2000,25,5,255,4,,,,,1193.2954898000007,1194.2800380000008,1194.2793295800006,,t,1,,0.7652361999989807,,,,,,elpida_23_10_23,shielded_hugin)4,2023-10-23_14h31.44.268,Oddball_task,2022.2.5,59.71675150452806,
standard,soundFiles/250Hz_44100Hz_16bit_05sec.wav',None,1000,25,6,256,8,,,,,1196.7808881,1197.7651599,1197.7653750800005,1200.2676092000002,None,1,,,,,,,,elpida_23_10_23,shielded_hugin)4,2023-10-23_14h31.44.268,Oddball_task,2022.2.5,59.71675150452806,
standard,soundFiles/250Hz_44100Hz_16bit_05sec.wav',None,1000,25,7,257,6,,,,,1200.2844924,1201.2685501000014,1201.2692396800016,1203.7710826000002,None,1,,,,,,,,elpida_23_10_23,shielded_hugin)4,2023-10-23_14h31.44.268,Oddball_task,2022.2.5,59.71675150452806,
standard,soundFiles/250Hz_44100Hz_16bit_05sec.wav',None,1000,25,8,258,2,,,,,1203.7875042000014,1204.7716003000005,1204.7716616800012,1207.273784500001,None,1,,,,,,,,elpida_23_10_23,shielded_hugin)4,2023-10-23_14h31.44.268,Oddball_task,2022.2.5,59.71675150452806,
standard,soundFiles/250Hz_44100Hz_16bit_05sec.wav',None,1001,25,9,259,9,,,,,1207.2903274,1208.2749135000013,1208.2744623800013,1210.7766140000003,None,1,,,,,,,,elpida_23_10_23,shielded_hugin)4,2023-10-23_14h31.44.268,Oddball_task,2022.2.5,59.71675150452806,
target,soundFiles/1200Hz_-3dBFS_3s_44.1kHz.wav',t,2000,26,0,260,4,,,,,1210.7936018,1211.7779298000005,1211.776972080001,1214.2794453000006,t,1,,0.9833357999996224,,,,,,elpida_23_10_23,shielded_hugin)4,2023-10-23_14h31.44.268,Oddball_task,2022.2.5,59.71675150452806,
standard,soundFiles/250Hz_44100Hz_16bit_05sec.wav',None,1000,26,1,261,8,,,,,1214.2959545000012,1215.2636897000011,1215.26402698,1217.7663249000016,None,1,,,,,,,,elpida_23_10_23,shielded_hugin)4,2023-10-23_14h31.44.268,Oddball_task,2022.2.5,59.71675150452806,
standard,soundFiles/250Hz_44100Hz_16bit_05sec.wav',None,1000,26,2,262,0,,,,,1217.7822034,1218.7665030000007,1218.766583180001,1221.2687873000013,None,1,,,,,,,,elpida_23_10_23,shielded_hugin)4,2023-10-23_14h31.44.268,Oddball_task,2022.2.5,59.71675150452806,
standard,soundFiles/250Hz_44100Hz_16bit_05sec.wav',None,1000,26,3,263,5,,,,,1221.2852808000007,1222.2694443,1222.269440980001,1224.7716806000008,None,1,,,,,,,,elpida_23_10_23,shielded_hugin)4,2023-10-23_14h31.44.268,Oddball_task,2022.2.5,59.71675150452806,
standard,soundFiles/250Hz_44100Hz_16bit_05sec.wav',None,1000,26,4,264,2,,,,,1224.7882714000007,1225.7727460000006,1225.77234448,1228.2747387,None,1,,,,,,,,elpida_23_10_23,shielded_hugin)4,2023-10-23_14h31.44.268,Oddball_task,2022.2.5,59.71675150452806,
standard,soundFiles/250Hz_44100Hz_16bit_05sec.wav',None,1000,26,5,265,7,,,,,1228.2913633000007,1229.2764982000008,1229.2754263800002,1231.7779565,None,1,,,,,,,,elpida_23_10_23,shielded_hugin)4,2023-10-23_14h31.44.268,Oddball_task,2022.2.5,59.71675150452806,
standard,soundFiles/250Hz_44100Hz_16bit_05sec.wav',None,1001,26,6,266,9,,,,,1231.7942853000004,1232.7789040000007,1232.7786435800012,1235.2803952000013,None,1,,,,,,,,elpida_23_10_23,shielded_hugin)4,2023-10-23_14h31.44.268,Oddball_task,2022.2.5,59.71675150452806,
standard,soundFiles/250Hz_44100Hz_16bit_05sec.wav',None,1000,26,7,267,1,,,,,1235.2970584000013,1236.2640532000005,1236.2642169800006,1238.7665604000013,None,1,,,,,,,,elpida_23_10_23,shielded_hugin)4,2023-10-23_14h31.44.268,Oddball_task,2022.2.5,59.71675150452806,
standard,soundFiles/250Hz_44100Hz_16bit_05sec.wav',None,1000,26,8,268,3,,,,,1238.7831873000014,1239.7670537000013,1239.7671484800017,1242.2697016000002,None,1,,,,,,,,elpida_23_10_23,shielded_hugin)4,2023-10-23_14h31.44.268,Oddball_task,2022.2.5,59.71675150452806,
standard,soundFiles/250Hz_44100Hz_16bit_05sec.wav',None,1000,26,9,269,6,,,,,1242.2865415000015,1243.2705349000007,1243.2707909800015,1245.7726875000008,None,1,,,,,,,,elpida_23_10_23,shielded_hugin)4,2023-10-23_14h31.44.268,Oddball_task,2022.2.5,59.71675150452806,
standard,soundFiles/250Hz_44100Hz_16bit_05sec.wav',None,1000,27,0,270,6,,,,,1245.7892491000002,1246.7733794000014,1246.7729809800007,1249.2757079000003,None,1,,,,,,,,elpida_23_10_23,shielded_hugin)4,2023-10-23_14h31.44.268,Oddball_task,2022.2.5,59.71675150452806,
standard,soundFiles/250Hz_44100Hz_16bit_05sec.wav',None,1000,27,1,271,0,,,,,1249.2922523000016,1250.276116500001,1250.2761770800012,1252.7779131000007,None,1,,,,,,,,elpida_23_10_23,shielded_hugin)4,2023-10-23_14h31.44.268,Oddball_task,2022.2.5,59.71675150452806,
standard,soundFiles/250Hz_44100Hz_16bit_05sec.wav',None,1000,27,2,272,5,,,,,1252.7959132000015,1253.7795782000012,1253.779409880001,1256.2808404000007,None,1,1254.7800610000013,,,,,,,elpida_23_10_23,shielded_hugin)4,2023-10-23_14h31.44.268,Oddball_task,2022.2.5,59.71675150452806,
standard,soundFiles/250Hz_44100Hz_16bit_05sec.wav',None,1000,27,3,273,8,,,,,1256.2978432,1257.2667567000008,1257.2655435800011,1259.7675672000005,None,1,,,,,,,,elpida_23_10_23,shielded_hugin)4,2023-10-23_14h31.44.268,Oddball_task,2022.2.5,59.71675150452806,
standard,soundFiles/250Hz_44100Hz_16bit_05sec.wav',None,1000,27,4,274,7,,,,,1259.7840581,1260.7685012000002,1260.7683918799999,1263.2705196000006,None,1,,,,,,,,elpida_23_10_23,shielded_hugin)4,2023-10-23_14h31.44.268,Oddball_task,2022.2.5,59.71675150452806,
standard,soundFiles/250Hz_44100Hz_16bit_05sec.wav',None,1001,27,5,275,9,,,,,1263.2874771000006,1264.2713307000013,1264.2709405800001,1266.7732441000007,None,1,,,,,,,,elpida_23_10_23,shielded_hugin)4,2023-10-23_14h31.44.268,Oddball_task,2022.2.5,59.71675150452806,
standard,soundFiles/250Hz_44100Hz_16bit_05sec.wav',None,1000,27,6,276,3,,,,,1266.7905382000008,1267.774472000001,1267.7749752800014,1270.2764236000003,None,1,,,,,,,,elpida_23_10_23,shielded_hugin)4,2023-10-23_14h31.44.268,Oddball_task,2022.2.5,59.71675150452806,
target,soundFiles/1200Hz_-3dBFS_3s_44.1kHz.wav',t,2000,27,7,277,4,,,,,1270.2935648000002,1271.277304000001,1271.2773454800013,1273.7796009000012,t,1,,0.871523799998613,,,,,,elpida_23_10_23,shielded_hugin)4,2023-10-23_14h31.44.268,Oddball_task,2022.2.5,59.71675150452806,
standard,soundFiles/250Hz_44100Hz_16bit_05sec.wav',None,1000,27,8,278,1,,,,,1273.7968967000015,1274.7640899000016,1274.7639770800001,1277.2656596000015,None,1,,,,,,,,elpida_23_10_23,shielded_hugin)4,2023-10-23_14h31.44.268,Oddball_task,2022.2.5,59.71675150452806,
standard,soundFiles/250Hz_44100Hz_16bit_05sec.wav',None,1000,27,9,279,2,,,,,1277.2826077000009,1278.2668329000007,1278.2664278800007,1280.7687772000008,None,1,,,,,,,,elpida_23_10_23,shielded_hugin)4,2023-10-23_14h31.44.268,Oddball_task,2022.2.5,59.71675150452806,
standard,soundFiles/250Hz_44100Hz_16bit_05sec.wav',None,1000,28,0,280,3,,,,,1280.7853898000012,1281.769394500001,1281.769940480001,1284.2729560000007,None,1,,,,,,,,elpida_23_10_23,shielded_hugin)4,2023-10-23_14h31.44.268,Oddball_task,2022.2.5,59.71675150452806,
standard,soundFiles/250Hz_44100Hz_16bit_05sec.wav',None,1000,28,1,281,2,,,,,1284.2893718000014,1285.272436000001,1285.2724373800015,1287.7746350000016,None,1,,,,,,,,elpida_23_10_23,shielded_hugin)4,2023-10-23_14h31.44.268,Oddball_task,2022.2.5,59.71675150452806,
standard,soundFiles/250Hz_44100Hz_16bit_05sec.wav',None,1000,28,2,282,8,,,,,1287.792353500001,1288.7757718000012,1288.7757186800013,1291.2782162000003,None,1,,,,,,,,elpida_23_10_23,shielded_hugin)4,2023-10-23_14h31.44.268,Oddball_task,2022.2.5,59.71675150452806,
standard,soundFiles/250Hz_44100Hz_16bit_05sec.wav',None,1000,28,3,283,0,,,,,1291.2951184000012,1292.2794279000009,1292.2784849800014,1294.7806054000011,None,1,,,,,,,,elpida_23_10_23,shielded_hugin)4,2023-10-23_14h31.44.268,Oddball_task,2022.2.5,59.71675150452806,
standard,soundFiles/250Hz_44100Hz_16bit_05sec.wav',None,1000,28,4,284,7,,,,,1294.7971513000011,1295.764602700001,1295.766287680001,1298.2667932000004,None,1,,,,,,,,elpida_23_10_23,shielded_hugin)4,2023-10-23_14h31.44.268,Oddball_task,2022.2.5,59.71675150452806,
standard,soundFiles/250Hz_44100Hz_16bit_05sec.wav',None,1000,28,5,285,6,,,,,1298.2836450000013,1299.2681205000008,1299.2674902800013,1301.7695671000001,None,1,,,,,,,,elpida_23_10_23,shielded_hugin)4,2023-10-23_14h31.44.268,Oddball_task,2022.2.5,59.71675150452806,
standard,soundFiles/250Hz_44100Hz_16bit_05sec.wav',None,1000,28,6,286,5,,,,,1301.7864568000005,1302.7703429000012,1302.770552980001,1305.2731894000008,None,1,,,,,,,,elpida_23_10_23,shielded_hugin)4,2023-10-23_14h31.44.268,Oddball_task,2022.2.5,59.71675150452806,
standard,soundFiles/250Hz_44100Hz_16bit_05sec.wav',None,1000,28,7,287,1,,,,,1305.290643100001,1306.2738590000008,1306.2740803800011,1308.775286600001,None,1,,,,,,,,elpida_23_10_23,shielded_hugin)4,2023-10-23_14h31.44.268,Oddball_task,2022.2.5,59.71675150452806,
standard,soundFiles/250Hz_44100Hz_16bit_05sec.wav',None,1001,28,8,288,9,,,,,1308.7924515000013,1309.7768972000013,1309.77731258,1312.2782731000007,None,1,,,,,,,,elpida_23_10_23,shielded_hugin)4,2023-10-23_14h31.44.268,Oddball_task,2022.2.5,59.71675150452806,
target,soundFiles/1200Hz_-3dBFS_3s_44.1kHz.wav',t,2000,28,9,289,4,,,,,1312.2949031000007,1313.2790479000014,1313.27942648,,t,1,,0.7678625999997166,,,,,,elpida_23_10_23,shielded_hugin)4,2023-10-23_14h31.44.268,Oddball_task,2022.2.5,59.71675150452806,
standard,soundFiles/250Hz_44100Hz_16bit_05sec.wav',None,1000,29,0,290,2,,,,,1315.7816908000004,1316.7654534000012,1316.7654450800005,1319.268078000001,None,1,,,,,,,,elpida_23_10_23,shielded_hugin)4,2023-10-23_14h31.44.268,Oddball_task,2022.2.5,59.71675150452806,
standard,soundFiles/250Hz_44100Hz_16bit_05sec.wav',None,1000,29,1,291,7,,,,,1319.2847176000014,1320.2687831000003,1320.2686673800004,1322.7701763000005,None,1,,,,,,,,elpida_23_10_23,shielded_hugin)4,2023-10-23_14h31.44.268,Oddball_task,2022.2.5,59.71675150452806,
standard,soundFiles/250Hz_44100Hz_16bit_05sec.wav',None,1000,29,2,292,8,,,,,1322.7882722000013,1323.7708914000013,1323.7711603800003,1326.2733998000003,None,1,,,,,,,,elpida_23_10_23,shielded_hugin)4,2023-10-23_14h31.44.268,Oddball_task,2022.2.5,59.71675150452806,
standard,soundFiles/250Hz_44100Hz_16bit_05sec.wav',None,1000,29,3,293,1,,,,,1326.2901070000007,1327.2737639000006,1327.2743755800007,1329.7767949000008,None,1,,,,,,,,elpida_23_10_23,shielded_hugin)4,2023-10-23_14h31.44.268,Oddball_task,2022.2.5,59.71675150452806,
standard,soundFiles/250Hz_44100Hz_16bit_05sec.wav',None,1000,29,4,294,3,,,,,1329.7929327000002,1330.7768433,1330.7772161800008,1333.2792807000005,None,1,,,,,,,,elpida_23_10_23,shielded_hugin)4,2023-10-23_14h31.44.268,Oddball_task,2022.2.5,59.71675150452806,
standard,soundFiles/250Hz_44100Hz_16bit_05sec.wav',None,1000,29,5,295,0,,,,,1333.2963131000015,1334.2636708999999,1334.2640028800001,1336.7662097000011,None,1,,,,,,,,elpida_23_10_23,shielded_hugin)4,2023-10-23_14h31.44.268,Oddball_task,2022.2.5,59.71675150452806,
standard,soundFiles/250Hz_44100Hz_16bit_05sec.wav',None,1000,29,6,296,5,,,,,1336.7831157,1337.766531700001,1337.7665128800004,1340.2689104,None,1,,,,,,,,elpida_23_10_23,shielded_hugin)4,2023-10-23_14h31.44.268,Oddball_task,2022.2.5,59.71675150452806,
target,soundFiles/1200Hz_-3dBFS_3s_44.1kHz.wav',t,2000,29,7,297,4,,,,,1340.285359900001,1341.2690080000011,1341.2689812800004,1343.7715807000004,t,1,,0.8837205999989237,,,,,,elpida_23_10_23,shielded_hugin)4,2023-10-23_14h31.44.268,Oddball_task,2022.2.5,59.71675150452806,
standard,soundFiles/250Hz_44100Hz_16bit_05sec.wav',None,1001,29,8,298,9,,,,,1343.7885364000012,1344.771812500001,1344.771938280001,1347.2745813000001,None,1,,,,,,,,elpida_23_10_23,shielded_hugin)4,2023-10-23_14h31.44.268,Oddball_task,2022.2.5,59.71675150452806,
standard,soundFiles/250Hz_44100Hz_16bit_05sec.wav',None,1000,29,9,299,6,,,,,1347.2914151000004,1348.2757758000007,1348.2762360800011,1350.7782931000002,None,1,,,,,,,,elpida_23_10_23,shielded_hugin)4,2023-10-23_14h31.44.268,Oddball_task,2022.2.5,59.71675150452806,
standard,soundFiles/250Hz_44100Hz_16bit_05sec.wav',None,1000,30,0,300,1,,,,,1350.7946434000005,1351.778815900001,1351.7788361799999,1354.2802185,None,1,,,,,,,,elpida_23_10_23,shielded_hugin)4,2023-10-23_14h31.44.268,Oddball_task,2022.2.5,59.71675150452806,
standard,soundFiles/250Hz_44100Hz_16bit_05sec.wav',None,1000,30,1,301,2,,,,,1354.2970248000001,1355.2643616000005,1355.2640399800007,1357.7678312000007,None,1,,,,,,,,elpida_23_10_23,shielded_hugin)4,2023-10-23_14h31.44.268,Oddball_task,2022.2.5,59.71675150452806,
standard,soundFiles/250Hz_44100Hz_16bit_05sec.wav',None,1001,30,2,302,9,,,,,1357.7841066,1358.7678504000014,1358.7676449800006,1361.2694622,None,1,,,,,,,,elpida_23_10_23,shielded_hugin)4,2023-10-23_14h31.44.268,Oddball_task,2022.2.5,59.71675150452806,
standard,soundFiles/250Hz_44100Hz_16bit_05sec.wav',None,1000,30,3,303,0,,,,,1361.2863407000004,1362.2707192000016,1362.270696780001,1364.7727066000007,None,1,,,,,,,,elpida_23_10_23,shielded_hugin)4,2023-10-23_14h31.44.268,Oddball_task,2022.2.5,59.71675150452806,
standard,soundFiles/250Hz_44100Hz_16bit_05sec.wav',None,1000,30,4,304,5,,,,,1364.7893874000001,1365.773010500001,1365.7732037800001,1368.2756469000014,None,1,,,,,,,,elpida_23_10_23,shielded_hugin)4,2023-10-23_14h31.44.268,Oddball_task,2022.2.5,59.71675150452806,
standard,soundFiles/250Hz_44100Hz_16bit_05sec.wav',None,1000,30,5,305,3,,,,,1368.2921319000016,1369.2757981000013,1369.2764064799999,1371.777949700001,None,1,,,,,,,,elpida_23_10_23,shielded_hugin)4,2023-10-23_14h31.44.268,Oddball_task,2022.2.5,59.71675150452806,
target,soundFiles/1200Hz_-3dBFS_3s_44.1kHz.wav',t,2000,30,6,306,4,,,,,1371.7943271000004,1372.7790233000014,1372.7795159800012,,t,1,,0.7578030000004219,,,,,,elpida_23_10_23,shielded_hugin)4,2023-10-23_14h31.44.268,Oddball_task,2022.2.5,59.71675150452806,
standard,soundFiles/250Hz_44100Hz_16bit_05sec.wav',None,1000,30,7,307,7,,,,,1375.281265900001,1376.265408700001,1376.2658055800007,1378.7677952000013,None,1,,,,,,,,elpida_23_10_23,shielded_hugin)4,2023-10-23_14h31.44.268,Oddball_task,2022.2.5,59.71675150452806,
standard,soundFiles/250Hz_44100Hz_16bit_05sec.wav',None,1000,30,8,308,8,,,,,1378.7843242,1379.7680901000003,1379.7685978800005,1382.270608500001,None,1,,,,,,,,elpida_23_10_23,shielded_hugin)4,2023-10-23_14h31.44.268,Oddball_task,2022.2.5,59.71675150452806,
standard,soundFiles/250Hz_44100Hz_16bit_05sec.wav',None,1000,30,9,309,6,,,,,1382.2872981,1383.2708327,1383.27085768,1385.7742384000012,None,1,,,,,,,,elpida_23_10_23,shielded_hugin)4,2023-10-23_14h31.44.268,Oddball_task,2022.2.5,59.71675150452806,
standard,soundFiles/250Hz_44100Hz_16bit_05sec.wav',None,1001,31,0,310,9,,,,,1385.7903612999999,1386.7744639000011,1386.7742035800006,1389.2767539000015,None,1,,,,,,,,elpida_23_10_23,shielded_hugin)4,2023-10-23_14h31.44.268,Oddball_task,2022.2.5,59.71675150452806,
standard,soundFiles/250Hz_44100Hz_16bit_05sec.wav',None,1000,31,1,311,3,,,,,1389.2928116000003,1390.2766474,1390.2772505800008,1392.7798086000003,None,1,,,,,,,,elpida_23_10_23,shielded_hugin)4,2023-10-23_14h31.44.268,Oddball_task,2022.2.5,59.71675150452806,
standard,soundFiles/250Hz_44100Hz_16bit_05sec.wav',None,1000,31,2,312,1,,,,,1392.7962295000016,1393.7633048000007,1393.7651299800004,1396.2655682000004,None,1,,,,,,,,elpida_23_10_23,shielded_hugin)4,2023-10-23_14h31.44.268,Oddball_task,2022.2.5,59.71675150452806,
target,soundFiles/1200Hz_-3dBFS_3s_44.1kHz.wav',t,2000,31,3,313,4,,,,,1396.2818948000004,1397.2678466000016,1397.2662547800014,1399.7685416000004,t,1,,0.8510993999989296,,,,,,elpida_23_10_23,shielded_hugin)4,2023-10-23_14h31.44.268,Oddball_task,2022.2.5,59.71675150452806,
standard,soundFiles/250Hz_44100Hz_16bit_05sec.wav',None,1000,31,4,314,2,,,,,1399.7854081000005,1400.7697993000002,1400.7690556800012,1403.2717146000014,None,1,,,,,,,,elpida_23_10_23,shielded_hugin)4,2023-10-23_14h31.44.268,Oddball_task,2022.2.5,59.71675150452806,
standard,soundFiles/250Hz_44100Hz_16bit_05sec.wav',None,1000,31,5,315,6,,,,,1403.2880784000008,1404.2717693000013,1404.2720428800008,1406.7748174000008,None,1,,,,,,,,elpida_23_10_23,shielded_hugin)4,2023-10-23_14h31.44.268,Oddball_task,2022.2.5,59.71675150452806,
standard,soundFiles/250Hz_44100Hz_16bit_05sec.wav',None,1000,31,6,316,8,,,,,1406.7908492000006,1407.7751258000008,1407.7752703800002,1410.2780616,None,1,,,,,,,,elpida_23_10_23,shielded_hugin)4,2023-10-23_14h31.44.268,Oddball_task,2022.2.5,59.71675150452806,
standard,soundFiles/250Hz_44100Hz_16bit_05sec.wav',None,1000,31,7,317,5,,,,,1410.2940189,1411.2783072000002,1411.2782847800013,1413.7795718000016,None,1,,,,,,,,elpida_23_10_23,shielded_hugin)4,2023-10-23_14h31.44.268,Oddball_task,2022.2.5,59.71675150452806,
standard,soundFiles/250Hz_44100Hz_16bit_05sec.wav',None,1000,31,8,318,7,,,,,1413.7964061000002,1414.7644444000016,1414.7643421800008,1417.2664827000008,None,1,,,,,,,,elpida_23_10_23,shielded_hugin)4,2023-10-23_14h31.44.268,Oddball_task,2022.2.5,59.71675150452806,
standard,soundFiles/250Hz_44100Hz_16bit_05sec.wav',None,1000,31,9,319,0,,,,,1417.2830297,1418.2667704000014,1418.2668550800013,1420.7695561,None,1,,,,,,,,elpida_23_10_23,shielded_hugin)4,2023-10-23_14h31.44.268,Oddball_task,2022.2.5,59.71675150452806,
standard,soundFiles/250Hz_44100Hz_16bit_05sec.wav',None,1000,32,0,320,5,,,,,1420.786544300001,1421.7695410000015,1421.7696653799999,1424.2719484000008,None,1,,,,,,,,elpida_23_10_23,shielded_hugin)4,2023-10-23_14h31.44.268,Oddball_task,2022.2.5,59.71675150452806,
standard,soundFiles/250Hz_44100Hz_16bit_05sec.wav',None,1000,32,1,321,0,,,,,1424.288625700001,1425.2728918000012,1425.2727936800006,1427.7752648000005,None,1,,,,,,,,elpida_23_10_23,shielded_hugin)4,2023-10-23_14h31.44.268,Oddball_task,2022.2.5,59.71675150452806,
standard,soundFiles/250Hz_44100Hz_16bit_05sec.wav',None,1000,32,2,322,7,,,,,1427.7917471,1428.7756945,1428.7756012800005,1431.2779959,None,1,,,,,,,,elpida_23_10_23,shielded_hugin)4,2023-10-23_14h31.44.268,Oddball_task,2022.2.5,59.71675150452806,
standard,soundFiles/250Hz_44100Hz_16bit_05sec.wav',None,1001,32,3,323,9,,,,,1431.2949969000001,1432.2791617000003,1432.2792492800004,1434.7807616999999,None,1,,,,,,,,elpida_23_10_23,shielded_hugin)4,2023-10-23_14h31.44.268,Oddball_task,2022.2.5,59.71675150452806,
standard,soundFiles/250Hz_44100Hz_16bit_05sec.wav',None,1000,32,4,324,8,,,,,1434.7971697000012,1435.7655212000009,1435.76493548,1438.2687533000008,None,1,,,,,,,,elpida_23_10_23,shielded_hugin)4,2023-10-23_14h31.44.268,Oddball_task,2022.2.5,59.71675150452806,
target,soundFiles/1200Hz_-3dBFS_3s_44.1kHz.wav',t,2000,32,5,325,4,,,,,1438.2849213000009,1439.2688414000004,1439.2678647800008,1441.7711272000015,t,1,,0.7139752999992197,,,,,,elpida_23_10_23,shielded_hugin)4,2023-10-23_14h31.44.268,Oddball_task,2022.2.5,59.71675150452806,
standard,soundFiles/250Hz_44100Hz_16bit_05sec.wav',None,1000,32,6,326,3,,,,,1441.7874748000013,1442.7708191000002,1442.770688180001,1445.2733046000012,None,1,,,,,,,,elpida_23_10_23,shielded_hugin)4,2023-10-23_14h31.44.268,Oddball_task,2022.2.5,59.71675150452806,
standard,soundFiles/250Hz_44100Hz_16bit_05sec.wav',None,1000,32,7,327,6,,,,,1445.2898480000003,1446.2739674000004,1446.2742355800005,1448.7758618000007,None,1,,,,,,,,elpida_23_10_23,shielded_hugin)4,2023-10-23_14h31.44.268,Oddball_task,2022.2.5,59.71675150452806,
standard,soundFiles/250Hz_44100Hz_16bit_05sec.wav',None,1000,32,8,328,1,,,,,1448.7924091000004,1449.7772883000016,1449.7775131800013,1452.2792854,None,1,,,,,,,,elpida_23_10_23,shielded_hugin)4,2023-10-23_14h31.44.268,Oddball_task,2022.2.5,59.71675150452806,
standard,soundFiles/250Hz_44100Hz_16bit_05sec.wav',None,1000,32,9,329,2,,,,,1452.2961185000004,1453.279772400001,1453.280338680001,,None,1,,,,,,,,elpida_23_10_23,shielded_hugin)4,2023-10-23_14h31.44.268,Oddball_task,2022.2.5,59.71675150452806,
target,soundFiles/1200Hz_-3dBFS_3s_44.1kHz.wav',t,2000,33,0,330,4,,,,,1455.782211400001,1456.7662349000002,1456.7658994800008,1459.268030700001,t,1,,0.8826529999987542,,,,,,elpida_23_10_23,shielded_hugin)4,2023-10-23_14h31.44.268,Oddball_task,2022.2.5,59.71675150452806,
standard,soundFiles/250Hz_44100Hz_16bit_05sec.wav',None,1000,33,1,331,2,,,,,1459.2845433000002,1460.2687854000014,1460.2689591800013,1462.7715590000007,None,1,,,,,,,,elpida_23_10_23,shielded_hugin)4,2023-10-23_14h31.44.268,Oddball_task,2022.2.5,59.71675150452806,
standard,soundFiles/250Hz_44100Hz_16bit_05sec.wav',None,1000,33,2,332,8,,,,,1462.7879429000004,1463.7719221000007,1463.7733717800006,1466.2749667000007,None,1,,,,,,,,elpida_23_10_23,shielded_hugin)4,2023-10-23_14h31.44.268,Oddball_task,2022.2.5,59.71675150452806,
standard,soundFiles/250Hz_44100Hz_16bit_05sec.wav',None,1000,33,3,333,0,,,,,1466.2907867000013,1467.275900300001,1467.2751906800008,1469.7773499000014,None,1,,,,,,,,elpida_23_10_23,shielded_hugin)4,2023-10-23_14h31.44.268,Oddball_task,2022.2.5,59.71675150452806,
standard,soundFiles/250Hz_44100Hz_16bit_05sec.wav',None,1000,33,4,334,3,,,,,1469.7940310000013,1470.7782874000004,1470.77900508,1473.2812875,None,1,,,,,,,,elpida_23_10_23,shielded_hugin)4,2023-10-23_14h31.44.268,Oddball_task,2022.2.5,59.71675150452806,
standard,soundFiles/250Hz_44100Hz_16bit_05sec.wav',None,1000,33,5,335,1,,,,,1473.2966741,1474.2651684000011,1474.2640677800014,1476.7658809000004,None,1,1475.2661974000002,,,,,,,elpida_23_10_23,shielded_hugin)4,2023-10-23_14h31.44.268,Oddball_task,2022.2.5,59.71675150452806,
standard,soundFiles/250Hz_44100Hz_16bit_05sec.wav',None,1000,33,6,336,6,,,,,1476.783110800001,1477.7669810000007,1477.7669642800015,1480.2694970000011,None,1,,,,,,,,elpida_23_10_23,shielded_hugin)4,2023-10-23_14h31.44.268,Oddball_task,2022.2.5,59.71675150452806,
standard,soundFiles/250Hz_44100Hz_16bit_05sec.wav',None,1001,33,7,337,9,,,,,1480.286247,1481.2697984000006,1481.2699851800012,1483.7721162000016,None,1,,,,,,,,elpida_23_10_23,shielded_hugin)4,2023-10-23_14h31.44.268,Oddball_task,2022.2.5,59.71675150452806,
standard,soundFiles/250Hz_44100Hz_16bit_05sec.wav',None,1000,33,8,338,7,,,,,1483.7887061000001,1484.7731585000001,1484.7730013800015,1487.2758691,None,1,,,,,,,,elpida_23_10_23,shielded_hugin)4,2023-10-23_14h31.44.268,Oddball_task,2022.2.5,59.71675150452806,
standard,soundFiles/250Hz_44100Hz_16bit_05sec.wav',None,1000,33,9,339,5,,,,,1487.2921299000009,1488.2762899000008,1488.2758471800012,1490.777696700001,None,1,,,,,,,,elpida_23_10_23,shielded_hugin)4,2023-10-23_14h31.44.268,Oddball_task,2022.2.5,59.71675150452806,
standard,soundFiles/250Hz_44100Hz_16bit_05sec.wav',None,1000,34,0,340,6,,,,,1490.7946581000015,1491.7787052000003,1491.7791587800007,,None,1,,,,,,,,elpida_23_10_23,shielded_hugin)4,2023-10-23_14h31.44.268,Oddball_task,2022.2.5,59.71675150452806,
target,soundFiles/1200Hz_-3dBFS_3s_44.1kHz.wav',t,2000,34,1,341,4,,,,,1494.2807208000013,1495.2652101000003,1495.2648268800008,1497.7671506000006,t,1,1496.2659245000013,0.7131575999992492,,,,,,elpida_23_10_23,shielded_hugin)4,2023-10-23_14h31.44.268,Oddball_task,2022.2.5,59.71675150452806,
standard,soundFiles/250Hz_44100Hz_16bit_05sec.wav',None,1000,34,2,342,8,,,,,1497.7841817000008,1498.767707500001,1498.7680862800012,1501.2698514000003,None,1,,,,,,,,elpida_23_10_23,shielded_hugin)4,2023-10-23_14h31.44.268,Oddball_task,2022.2.5,59.71675150452806,
standard,soundFiles/250Hz_44100Hz_16bit_05sec.wav',None,1000,34,3,343,2,,,,,1501.2869625000003,1502.2711676,1502.2713126800013,1504.7731768000012,None,1,,,,,,,,elpida_23_10_23,shielded_hugin)4,2023-10-23_14h31.44.268,Oddball_task,2022.2.5,59.71675150452806,
standard,soundFiles/250Hz_44100Hz_16bit_05sec.wav',None,1000,34,4,344,5,,,,,1504.7900458000004,1505.7744138000016,1505.7745235800016,1508.2763735000008,None,1,,,,,,,,elpida_23_10_23,shielded_hugin)4,2023-10-23_14h31.44.268,Oddball_task,2022.2.5,59.71675150452806,
standard,soundFiles/250Hz_44100Hz_16bit_05sec.wav',None,1000,34,5,345,0,,,,,1508.2926771000002,1509.277532600001,1509.2776492800008,1511.7792243000004,None,1,,,,,,,,elpida_23_10_23,shielded_hugin)4,2023-10-23_14h31.44.268,Oddball_task,2022.2.5,59.71675150452806,
standard,soundFiles/250Hz_44100Hz_16bit_05sec.wav',None,1000,34,6,346,3,,,,,1511.7959911000016,1512.7805073,1512.7801726800012,,None,1,,,,,,,,elpida_23_10_23,shielded_hugin)4,2023-10-23_14h31.44.268,Oddball_task,2022.2.5,59.71675150452806,
standard,soundFiles/250Hz_44100Hz_16bit_05sec.wav',None,1000,34,7,347,1,,,,,1515.2822262000009,1516.2666945,1516.266076280001,1518.7678364000003,None,1,,,,,,,,elpida_23_10_23,shielded_hugin)4,2023-10-23_14h31.44.268,Oddball_task,2022.2.5,59.71675150452806,
standard,soundFiles/250Hz_44100Hz_16bit_05sec.wav',None,1001,34,8,348,9,,,,,1518.7857831000001,1519.7687571000006,1519.7690879800016,1522.2711971000008,None,1,,,,,,,,elpida_23_10_23,shielded_hugin)4,2023-10-23_14h31.44.268,Oddball_task,2022.2.5,59.71675150452806,
standard,soundFiles/250Hz_44100Hz_16bit_05sec.wav',None,1000,34,9,349,7,,,,,1522.2880462000012,1523.2721919000014,1523.272421780001,1525.7746162000003,None,1,,,,,,,,elpida_23_10_23,shielded_hugin)4,2023-10-23_14h31.44.268,Oddball_task,2022.2.5,59.71675150452806,
standard,soundFiles/250Hz_44100Hz_16bit_05sec.wav',None,1001,35,0,350,9,,,,,1525.7910822000013,1526.7750161000004,1526.7752076800011,1529.2777295000014,None,1,,,,,,,,elpida_23_10_23,shielded_hugin)4,2023-10-23_14h31.44.268,Oddball_task,2022.2.5,59.71675150452806,
standard,soundFiles/250Hz_44100Hz_16bit_05sec.wav',None,1000,35,1,351,7,,,,,1529.2945610000006,1530.278273,1530.2785096800003,1532.7803583000004,None,1,,,,,,,,elpida_23_10_23,shielded_hugin)4,2023-10-23_14h31.44.268,Oddball_task,2022.2.5,59.71675150452806,
standard,soundFiles/250Hz_44100Hz_16bit_05sec.wav',None,1000,35,2,352,3,,,,,1532.7971053,1533.7642031000014,1533.7640627800015,1536.2671581000013,None,1,,,,,,,,elpida_23_10_23,shielded_hugin)4,2023-10-23_14h31.44.268,Oddball_task,2022.2.5,59.71675150452806,
standard,soundFiles/250Hz_44100Hz_16bit_05sec.wav',None,1000,35,3,353,1,,,,,1536.283358300001,1537.2674888000001,1537.2679645800004,1539.7691618000008,None,1,,,,,,,,elpida_23_10_23,shielded_hugin)4,2023-10-23_14h31.44.268,Oddball_task,2022.2.5,59.71675150452806,
standard,soundFiles/250Hz_44100Hz_16bit_05sec.wav',None,1000,35,4,354,2,,,,,1539.7859104,1540.7701828000008,1540.7704600800012,1543.2721446000014,None,1,,,,,,,,elpida_23_10_23,shielded_hugin)4,2023-10-23_14h31.44.268,Oddball_task,2022.2.5,59.71675150452806,
standard,soundFiles/250Hz_44100Hz_16bit_05sec.wav',None,1000,35,5,355,8,,,,,1543.2887071000005,1544.2738432000006,1544.2743247800013,1546.7753850000008,None,1,,,,,,,,elpida_23_10_23,shielded_hugin)4,2023-10-23_14h31.44.268,Oddball_task,2022.2.5,59.71675150452806,
standard,soundFiles/250Hz_44100Hz_16bit_05sec.wav',None,1000,35,6,356,5,,,,,1546.791946700001,1547.7760682000007,1547.7761030800016,1550.2797277000009,None,1,,,,,,,,elpida_23_10_23,shielded_hugin)4,2023-10-23_14h31.44.268,Oddball_task,2022.2.5,59.71675150452806,
standard,soundFiles/250Hz_44100Hz_16bit_05sec.wav',None,1000,35,7,357,0,,,,,1550.295006800001,1551.2790625000016,1551.279234080001,,None,1,,,,,,,,elpida_23_10_23,shielded_hugin)4,2023-10-23_14h31.44.268,Oddball_task,2022.2.5,59.71675150452806,
target,soundFiles/1200Hz_-3dBFS_3s_44.1kHz.wav',t,2000,35,8,358,4,,,,,1553.781368,1554.7661271000015,1554.7656232800005,1557.2667225000005,t,1,,0.7721491000011156,,,,,,elpida_23_10_23,shielded_hugin)4,2023-10-23_14h31.44.268,Oddball_task,2022.2.5,59.71675150452806,
standard,soundFiles/250Hz_44100Hz_16bit_05sec.wav',None,1000,35,9,359,6,,,,,1557.2848147000004,1558.2683376000005,1558.26869718,1560.7701361,None,1,,,,,,,,elpida_23_10_23,shielded_hugin)4,2023-10-23_14h31.44.268,Oddball_task,2022.2.5,59.71675150452806,
standard,soundFiles/250Hz_44100Hz_16bit_05sec.wav',None,1000,36,0,360,2,,,,,1560.7871122000015,1561.7717185000001,1561.7709367800003,1564.272941000001,None,1,1562.7718014000002,,,,,,,elpida_23_10_23,shielded_hugin)4,2023-10-23_14h31.44.268,Oddball_task,2022.2.5,59.71675150452806,
standard,soundFiles/250Hz_44100Hz_16bit_05sec.wav',None,1000,36,1,361,0,,,,,1564.2895280000012,1565.2733654000003,1565.2739875800003,1567.776501800001,None,1,,,,,,,,elpida_23_10_23,shielded_hugin)4,2023-10-23_14h31.44.268,Oddball_task,2022.2.5,59.71675150452806,
standard,soundFiles/250Hz_44100Hz_16bit_05sec.wav',None,1000,36,2,362,1,,,,,1567.7928456000009,1568.7777088000003,1568.77717618,1571.2802502000013,None,1,,,,,,,,elpida_23_10_23,shielded_hugin)4,2023-10-23_14h31.44.268,Oddball_task,2022.2.5,59.71675150452806,
standard,soundFiles/250Hz_44100Hz_16bit_05sec.wav',None,1000,36,3,363,8,,,,,1571.2969151000016,1572.279190000001,1572.27940068,,None,1,,,,,,,,elpida_23_10_23,shielded_hugin)4,2023-10-23_14h31.44.268,Oddball_task,2022.2.5,59.71675150452806,
standard,soundFiles/250Hz_44100Hz_16bit_05sec.wav',None,1000,36,4,364,6,,,,,1574.7823759000003,1575.7665698,1575.7660379800004,1578.2679819000004,None,1,1576.7674607000008,,,,,,,elpida_23_10_23,shielded_hugin)4,2023-10-23_14h31.44.268,Oddball_task,2022.2.5,59.71675150452806,
standard,soundFiles/250Hz_44100Hz_16bit_05sec.wav',None,1000,36,5,365,7,,,,,1578.2853166000004,1579.268974300001,1579.26970028,1581.7723460000016,None,1,,,,,,,,elpida_23_10_23,shielded_hugin)4,2023-10-23_14h31.44.268,Oddball_task,2022.2.5,59.71675150452806,
target,soundFiles/1200Hz_-3dBFS_3s_44.1kHz.wav',t,2000,36,6,366,4,,,,,1581.7887491000001,1582.7716031,1582.7720253800003,1585.2746000000006,t,1,1583.7729489000012,0.7155977000002167,,,,,,elpida_23_10_23,shielded_hugin)4,2023-10-23_14h31.44.268,Oddball_task,2022.2.5,59.71675150452806,
standard,soundFiles/250Hz_44100Hz_16bit_05sec.wav',None,1000,36,7,367,5,,,,,1585.2912461000014,1586.2751276,1586.2765411800015,1588.7777197000014,None,1,,,,,,,,elpida_23_10_23,shielded_hugin)4,2023-10-23_14h31.44.268,Oddball_task,2022.2.5,59.71675150452806,
standard,soundFiles/250Hz_44100Hz_16bit_05sec.wav',None,1000,36,8,368,3,,,,,1588.7940444000014,1589.7780389,1589.778571180001,1592.2804766000008,None,1,,,,,,,,elpida_23_10_23,shielded_hugin)4,2023-10-23_14h31.44.268,Oddball_task,2022.2.5,59.71675150452806,
standard,soundFiles/250Hz_44100Hz_16bit_05sec.wav',None,1001,36,9,369,9,,,,,1592.2969849,1593.2641332000003,1593.2649297800003,1595.7664056000012,None,1,,,,,,,,elpida_23_10_23,shielded_hugin)4,2023-10-23_14h31.44.268,Oddball_task,2022.2.5,59.71675150452806,
target,soundFiles/1200Hz_-3dBFS_3s_44.1kHz.wav',t,2000,37,0,370,4,,,,,1595.7827828000009,1596.7681367000005,1596.76814848,1599.2693698000003,t,1,,0.8506522999996378,,,,,,elpida_23_10_23,shielded_hugin)4,2023-10-23_14h31.44.268,Oddball_task,2022.2.5,59.71675150452806,
standard,soundFiles/250Hz_44100Hz_16bit_05sec.wav',None,1000,37,1,371,1,,,,,1599.2860975000003,1600.2701146,1600.270300480001,1602.7724481000005,None,1,,,,,,,,elpida_23_10_23,shielded_hugin)4,2023-10-23_14h31.44.268,Oddball_task,2022.2.5,59.71675150452806,
standard,soundFiles/250Hz_44100Hz_16bit_05sec.wav',None,1000,37,2,372,5,,,,,1602.7889089,1603.7731577000013,1603.7730045800004,1606.2751292000012,None,1,,,,,,,,elpida_23_10_23,shielded_hugin)4,2023-10-23_14h31.44.268,Oddball_task,2022.2.5,59.71675150452806,
standard,soundFiles/250Hz_44100Hz_16bit_05sec.wav',None,1001,37,3,373,9,,,,,1606.2915861000001,1607.2758440000016,1607.2757204800005,1609.7782269,None,1,,,,,,,,elpida_23_10_23,shielded_hugin)4,2023-10-23_14h31.44.268,Oddball_task,2022.2.5,59.71675150452806,
standard,soundFiles/250Hz_44100Hz_16bit_05sec.wav',None,1000,37,4,374,2,,,,,1609.795166400001,1610.7781507,1610.7783589800006,1613.2807116000004,None,1,,,,,,,,elpida_23_10_23,shielded_hugin)4,2023-10-23_14h31.44.268,Oddball_task,2022.2.5,59.71675150452806,
standard,soundFiles/250Hz_44100Hz_16bit_05sec.wav',None,1000,37,5,375,0,,,,,1613.2972842,1614.2644156000006,1614.2646409800004,1616.7683717,None,1,,,,,,,,elpida_23_10_23,shielded_hugin)4,2023-10-23_14h31.44.268,Oddball_task,2022.2.5,59.71675150452806,
standard,soundFiles/250Hz_44100Hz_16bit_05sec.wav',None,1000,37,6,376,3,,,,,1616.7843206000016,1617.7684586000014,1617.76963888,1620.2701462000005,None,1,,,,,,,,elpida_23_10_23,shielded_hugin)4,2023-10-23_14h31.44.268,Oddball_task,2022.2.5,59.71675150452806,
standard,soundFiles/250Hz_44100Hz_16bit_05sec.wav',None,1000,37,7,377,8,,,,,1620.2868244000001,1621.2704955000008,1621.2706141800013,1623.7732884000015,None,1,,,,,,,,elpida_23_10_23,shielded_hugin)4,2023-10-23_14h31.44.268,Oddball_task,2022.2.5,59.71675150452806,
standard,soundFiles/250Hz_44100Hz_16bit_05sec.wav',None,1000,37,8,378,7,,,,,1623.7899946000016,1624.7742863000003,1624.7740391800003,1627.2759522000015,None,1,,,,,,,,elpida_23_10_23,shielded_hugin)4,2023-10-23_14h31.44.268,Oddball_task,2022.2.5,59.71675150452806,
standard,soundFiles/250Hz_44100Hz_16bit_05sec.wav',None,1000,37,9,379,6,,,,,1627.292493500001,1628.2770880000007,1628.2763555800016,1630.7796975,None,1,,,,,,,,elpida_23_10_23,shielded_hugin)4,2023-10-23_14h31.44.268,Oddball_task,2022.2.5,59.71675150452806,
standard,soundFiles/250Hz_44100Hz_16bit_05sec.wav',None,1000,38,0,380,5,,,,,1630.7959150000006,1631.779455400001,1631.77996828,,None,1,,,,,,,,elpida_23_10_23,shielded_hugin)4,2023-10-23_14h31.44.268,Oddball_task,2022.2.5,59.71675150452806,
standard,soundFiles/250Hz_44100Hz_16bit_05sec.wav',None,1000,38,1,381,2,,,,,1634.2829137000008,1635.265985,1635.2656838799999,1637.7694321,None,1,,,,,,,,elpida_23_10_23,shielded_hugin)4,2023-10-23_14h31.44.268,Oddball_task,2022.2.5,59.71675150452806,
