trial,file,corrAns,tone,trials_2.thisRepN,trials_2.thisTrialN,trials_2.thisN,trials_2.thisIndex,instructions.started,key_resp_1.started,key_resp_1.keys,key_resp_1.rt,fixation.started,response.started,sound_1.started,response.stopped,response.keys,response.corr,response.rt,sound_1.stopped,fixation.stopped,thank_you.started,exit_exp.started,thank_you.stopped,exit_exp.keys,exit_exp.rt,participant,session,date,expName,psychopyVersion,frameRate,
,,,,,,,,156.4143667999997,156.4143667999997,space,221.1115245000001,,,,,,,,,,,,,,,elpida_23_10_23(2),shielded_ultracortex,2023-10-23_16h52.03.492,Oddball_task,2022.2.5,59.556813925447344,
standard,soundFiles/1000Hz_-3dBFS_3s_44.1kHz.wav',None,1000,0,0,0,1,,,,,377.5671381000029,378.55093110000234,378.55317309000276,381.054199000002,None,1,,,,,,,,,elpida_23_10_23(2),shielded_ultracortex,2023-10-23_16h52.03.492,Oddball_task,2022.2.5,59.556813925447344,
standard,soundFiles/1000Hz_-3dBFS_3s_44.1kHz.wav',None,1000,0,1,1,2,,,,,381.0702908000021,382.03838689999975,382.0379771899996,384.5428284000009,None,1,,,,,,,,,elpida_23_10_23(2),shielded_ultracortex,2023-10-23_16h52.03.492,Oddball_task,2022.2.5,59.556813925447344,
standard,soundFiles/1000Hz_-3dBFS_3s_44.1kHz.wav',None,1000,0,2,2,0,,,,,384.5562436,385.5427103000002,385.54096099000054,388.0445681000019,None,1,,,,,,,,,elpida_23_10_23(2),shielded_ultracortex,2023-10-23_16h52.03.492,Oddball_task,2022.2.5,59.556813925447344,
target,soundFiles/1200Hz_-3dBFS_3s_44.1kHz.wav',t,2000,0,3,3,3,,,,,388.05878870000015,389.0440665000024,389.0434380900031,391.5451838000008,t,1,0.5776532999989286,,,,,,,,elpida_23_10_23(2),shielded_ultracortex,2023-10-23_16h52.03.492,Oddball_task,2022.2.5,59.556813925447344,
standard,soundFiles/1000Hz_-3dBFS_3s_44.1kHz.wav',None,1000,1,0,4,1,,,,,391.5623807000011,392.5461267000028,392.54762749000184,395.04832220000026,None,1,,,,,,,,,elpida_23_10_23(2),shielded_ultracortex,2023-10-23_16h52.03.492,Oddball_task,2022.2.5,59.556813925447344,
standard,soundFiles/1000Hz_-3dBFS_3s_44.1kHz.wav',None,1000,1,1,5,2,,,,,395.0661911999996,396.0501436000013,396.049974190001,398.55084830000123,None,1,,,,,,,,,elpida_23_10_23(2),shielded_ultracortex,2023-10-23_16h52.03.492,Oddball_task,2022.2.5,59.556813925447344,
standard,soundFiles/1000Hz_-3dBFS_3s_44.1kHz.wav',None,1000,1,2,6,0,,,,,398.56871740000133,399.55696610000086,399.5522026900024,,None,1,,,,,,,,,elpida_23_10_23(2),shielded_ultracortex,2023-10-23_16h52.03.492,Oddball_task,2022.2.5,59.556813925447344,
target,soundFiles/1200Hz_-3dBFS_3s_44.1kHz.wav',t,2000,1,3,7,3,,,,,402.0537523000021,403.0396182000004,403.03785799000144,405.54011340000216,t,1,0.9879230999977153,,,,,,,,elpida_23_10_23(2),shielded_ultracortex,2023-10-23_16h52.03.492,Oddball_task,2022.2.5,59.556813925447344,
standard,soundFiles/1000Hz_-3dBFS_3s_44.1kHz.wav',None,1000,2,0,8,1,,,,,405.55618740000136,406.54887489999965,406.5422311900027,,None,1,,,,,,,,,elpida_23_10_23(2),shielded_ultracortex,2023-10-23_16h52.03.492,Oddball_task,2022.2.5,59.556813925447344,
target,soundFiles/1200Hz_-3dBFS_3s_44.1kHz.wav',t,2000,2,1,9,3,,,,,409.0605035000008,410.0431767000009,410.0443064900017,412.5484374000007,t,1,0.7512261000010767,,,,,,,,elpida_23_10_23(2),shielded_ultracortex,2023-10-23_16h52.03.492,Oddball_task,2022.2.5,59.556813925447344,
standard,soundFiles/1000Hz_-3dBFS_3s_44.1kHz.wav',None,1000,2,2,10,2,,,,,412.56293970000115,413.5486727000025,413.5517639900016,416.04945620000217,None,1,,,,,,,,,elpida_23_10_23(2),shielded_ultracortex,2023-10-23_16h52.03.492,Oddball_task,2022.2.5,59.556813925447344,
standard,soundFiles/1000Hz_-3dBFS_3s_44.1kHz.wav',None,1000,2,3,11,0,,,,,416.0667381000021,417.05063110000265,417.04937959000273,,None,1,,,,,,,,,elpida_23_10_23(2),shielded_ultracortex,2023-10-23_16h52.03.492,Oddball_task,2022.2.5,59.556813925447344,
standard,soundFiles/1000Hz_-3dBFS_3s_44.1kHz.wav',None,1000,3,0,12,2,,,,,419.5525918000021,420.5373782000024,420.5379961900024,423.038418600001,None,1,,421.5383717000004,,,,,,,elpida_23_10_23(2),shielded_ultracortex,2023-10-23_16h52.03.492,Oddball_task,2022.2.5,59.556813925447344,
standard,soundFiles/1000Hz_-3dBFS_3s_44.1kHz.wav',None,1000,3,1,13,1,,,,,423.05698920000214,424.04204070000196,424.0397933900011,426.5448030000007,None,1,,,,,,,,,elpida_23_10_23(2),shielded_ultracortex,2023-10-23_16h52.03.492,Oddball_task,2022.2.5,59.556813925447344,
target,soundFiles/1200Hz_-3dBFS_3s_44.1kHz.wav',t,2000,3,2,14,3,,,,,426.5577708000019,427.5437110000021,427.5424096900013,430.04413829999976,t,1,1.3635204000020167,,,,,,,,elpida_23_10_23(2),shielded_ultracortex,2023-10-23_16h52.03.492,Oddball_task,2022.2.5,59.556813925447344,
standard,soundFiles/1000Hz_-3dBFS_3s_44.1kHz.wav',None,1000,3,3,15,0,,,,,430.0600942000019,431.04718590000266,431.04495819000186,433.5481838000014,None,1,,,,,,,,,elpida_23_10_23(2),shielded_ultracortex,2023-10-23_16h52.03.492,Oddball_task,2022.2.5,59.556813925447344,
standard,soundFiles/1000Hz_-3dBFS_3s_44.1kHz.wav',None,1000,4,0,16,2,,,,,433.56462100000135,434.54853619999994,434.54816209000165,437.0752520999995,None,1,,,,,,,,,elpida_23_10_23(2),shielded_ultracortex,2023-10-23_16h52.03.492,Oddball_task,2022.2.5,59.556813925447344,
standard,soundFiles/1000Hz_-3dBFS_3s_44.1kHz.wav',None,1000,4,1,17,1,,,,,437.10711269999956,438.0505551999995,438.053543390003,,None,1,,,,,,,,,elpida_23_10_23(2),shielded_ultracortex,2023-10-23_16h52.03.492,Oddball_task,2022.2.5,59.556813925447344,
standard,soundFiles/1000Hz_-3dBFS_3s_44.1kHz.wav',None,1000,4,2,18,0,,,,,440.55405480000263,441.5370088000018,441.538167790003,444.04212460000053,None,1,,442.54047470000296,,,,,,,elpida_23_10_23(2),shielded_ultracortex,2023-10-23_16h52.03.492,Oddball_task,2022.2.5,59.556813925447344,
target,soundFiles/1200Hz_-3dBFS_3s_44.1kHz.wav',t,2000,4,3,19,3,,,,,444.05637320000096,445.04403840000305,445.0430432900019,,t,1,0.6410637000008137,,,,,,,,elpida_23_10_23(2),shielded_ultracortex,2023-10-23_16h52.03.492,Oddball_task,2022.2.5,59.556813925447344,
standard,soundFiles/1000Hz_-3dBFS_3s_44.1kHz.wav',None,1000,5,0,20,2,,,,,447.558633800003,448.54264570000305,448.54397739000234,451.0461749999995,None,1,,,,,,,,,elpida_23_10_23(2),shielded_ultracortex,2023-10-23_16h52.03.492,Oddball_task,2022.2.5,59.556813925447344,
standard,soundFiles/1000Hz_-3dBFS_3s_44.1kHz.wav',None,1000,5,1,21,1,,,,,451.06298120000065,452.0465108000026,452.0471135899996,454.54816460000075,None,1,,,,,,,,,elpida_23_10_23(2),shielded_ultracortex,2023-10-23_16h52.03.492,Oddball_task,2022.2.5,59.556813925447344,
target,soundFiles/1200Hz_-3dBFS_3s_44.1kHz.wav',t,2000,5,2,22,3,,,,,454.56600750000143,455.54924400000164,455.5520905900001,,t,1,0.5410160999999789,,,,,,,,elpida_23_10_23(2),shielded_ultracortex,2023-10-23_16h52.03.492,Oddball_task,2022.2.5,59.556813925447344,
standard,soundFiles/1000Hz_-3dBFS_3s_44.1kHz.wav',None,1000,5,3,23,0,,,,,458.0696304000012,459.05286049999995,459.05187829000243,461.5539114000021,None,1,,,,,,,,,elpida_23_10_23(2),shielded_ultracortex,2023-10-23_16h52.03.492,Oddball_task,2022.2.5,59.556813925447344,
standard,soundFiles/1000Hz_-3dBFS_3s_44.1kHz.wav',None,1000,6,0,24,1,,,,,461.5718341000029,462.5407019000013,462.5386982900007,465.039576500003,None,1,,,,,,,,,elpida_23_10_23(2),shielded_ultracortex,2023-10-23_16h52.03.492,Oddball_task,2022.2.5,59.556813925447344,
standard,soundFiles/1000Hz_-3dBFS_3s_44.1kHz.wav',None,1000,6,1,25,2,,,,,465.05701659999977,466.04271860000154,466.04202579000304,468.54337860000305,None,1,,,,,,,,,elpida_23_10_23(2),shielded_ultracortex,2023-10-23_16h52.03.492,Oddball_task,2022.2.5,59.556813925447344,
standard,soundFiles/1000Hz_-3dBFS_3s_44.1kHz.wav',None,1000,6,2,26,0,,,,,468.56107970000085,469.54420519999985,469.5448743900004,472.0456916000003,None,1,,,,,,,,,elpida_23_10_23(2),shielded_ultracortex,2023-10-23_16h52.03.492,Oddball_task,2022.2.5,59.556813925447344,
target,soundFiles/1200Hz_-3dBFS_3s_44.1kHz.wav',t,2000,6,3,27,3,,,,,472.0642484000018,473.05282210000223,473.046917890001,,t,1,0.517276700000366,,,,,,,,elpida_23_10_23(2),shielded_ultracortex,2023-10-23_16h52.03.492,Oddball_task,2022.2.5,59.556813925447344,
standard,soundFiles/1000Hz_-3dBFS_3s_44.1kHz.wav',None,1000,7,0,28,1,,,,,475.565321500002,476.55556100000103,476.5517623900003,,None,1,,,,,,,,,elpida_23_10_23(2),shielded_ultracortex,2023-10-23_16h52.03.492,Oddball_task,2022.2.5,59.556813925447344,
standard,soundFiles/1000Hz_-3dBFS_3s_44.1kHz.wav',None,1000,7,1,29,2,,,,,479.06866680000167,480.0542736999996,480.0526314900006,,None,1,,,,,,,,,elpida_23_10_23(2),shielded_ultracortex,2023-10-23_16h52.03.492,Oddball_task,2022.2.5,59.556813925447344,
target,soundFiles/1200Hz_-3dBFS_3s_44.1kHz.wav',t,2000,7,2,30,3,,,,,482.5550379000015,483.5404458000012,483.53952909000037,486.0419529000028,t,1,0.493974299999536,,,,,,,,elpida_23_10_23(2),shielded_ultracortex,2023-10-23_16h52.03.492,Oddball_task,2022.2.5,59.556813925447344,
standard,soundFiles/1000Hz_-3dBFS_3s_44.1kHz.wav',None,1000,7,3,31,0,,,,,486.05904010000086,487.0423972000026,487.04298549000197,489.54464240000016,None,1,,,,,,,,,elpida_23_10_23(2),shielded_ultracortex,2023-10-23_16h52.03.492,Oddball_task,2022.2.5,59.556813925447344,
target,soundFiles/1200Hz_-3dBFS_3s_44.1kHz.wav',t,2000,8,0,32,3,,,,,489.56134550000206,490.54509770000004,490.54558709000304,493.046583000003,t,1,0.8191697000002023,,,,,,,,elpida_23_10_23(2),shielded_ultracortex,2023-10-23_16h52.03.492,Oddball_task,2022.2.5,59.556813925447344,
standard,soundFiles/1000Hz_-3dBFS_3s_44.1kHz.wav',None,1000,8,1,33,1,,,,,493.0639592000007,494.05222910000157,494.04765538999965,496.5498355000018,None,1,,,,,,,,,elpida_23_10_23(2),shielded_ultracortex,2023-10-23_16h52.03.492,Oddball_task,2022.2.5,59.556813925447344,
standard,soundFiles/1000Hz_-3dBFS_3s_44.1kHz.wav',None,1000,8,2,34,0,,,,,496.570811900001,497.55043210000076,497.55222619000307,500.0546469000001,None,1,,,,,,,,,elpida_23_10_23(2),shielded_ultracortex,2023-10-23_16h52.03.492,Oddball_task,2022.2.5,59.556813925447344,
standard,soundFiles/1000Hz_-3dBFS_3s_44.1kHz.wav',None,1000,8,3,35,2,,,,,500.0699691000009,501.03771609999967,501.03881579000046,503.54030390000116,None,1,,,,,,,,,elpida_23_10_23(2),shielded_ultracortex,2023-10-23_16h52.03.492,Oddball_task,2022.2.5,59.556813925447344,
target,soundFiles/1200Hz_-3dBFS_3s_44.1kHz.wav',t,2000,9,0,36,3,,,,,503.5548806000006,504.54404630000136,504.5404849900031,507.0428517,t,1,0.49381590000120923,,,,,,,,elpida_23_10_23(2),shielded_ultracortex,2023-10-23_16h52.03.492,Oddball_task,2022.2.5,59.556813925447344,
standard,soundFiles/1000Hz_-3dBFS_3s_44.1kHz.wav',None,1000,9,1,37,2,,,,,507.0602099000025,508.0435871000009,508.04469309000234,510.5455045000017,None,1,,,,,,,,,elpida_23_10_23(2),shielded_ultracortex,2023-10-23_16h52.03.492,Oddball_task,2022.2.5,59.556813925447344,
standard,soundFiles/1000Hz_-3dBFS_3s_44.1kHz.wav',None,1000,9,2,38,0,,,,,510.56399020000026,511.5465944000025,511.5472959900024,514.0507772000019,None,1,,,,,,,,,elpida_23_10_23(2),shielded_ultracortex,2023-10-23_16h52.03.492,Oddball_task,2022.2.5,59.556813925447344,
standard,soundFiles/1000Hz_-3dBFS_3s_44.1kHz.wav',None,1000,9,3,39,1,,,,,514.0643337000001,515.0479730000006,515.0490461899997,517.5511712000007,None,1,,,,,,,,,elpida_23_10_23(2),shielded_ultracortex,2023-10-23_16h52.03.492,Oddball_task,2022.2.5,59.556813925447344,
standard,soundFiles/1000Hz_-3dBFS_3s_44.1kHz.wav',None,1000,10,0,40,1,,,,,517.5690896000015,518.5517089000023,518.5534377900028,521.0556164000009,None,1,,,,,,,,,elpida_23_10_23(2),shielded_ultracortex,2023-10-23_16h52.03.492,Oddball_task,2022.2.5,59.556813925447344,
standard,soundFiles/1000Hz_-3dBFS_3s_44.1kHz.wav',None,1000,10,1,41,2,,,,,521.070525500003,522.0384550000017,522.042777190002,524.5403708000013,None,1,,,,,,,,,elpida_23_10_23(2),shielded_ultracortex,2023-10-23_16h52.03.492,Oddball_task,2022.2.5,59.556813925447344,
target,soundFiles/1200Hz_-3dBFS_3s_44.1kHz.wav',t,2000,10,2,42,3,,,,,524.557159,525.5443903000014,525.5419858900011,528.0435219000028,t,1,0.5284093999980541,,,,,,,,elpida_23_10_23(2),shielded_ultracortex,2023-10-23_16h52.03.492,Oddball_task,2022.2.5,59.556813925447344,
standard,soundFiles/1000Hz_-3dBFS_3s_44.1kHz.wav',None,1000,10,3,43,0,,,,,528.0628014000031,529.0441836000027,529.0440452900027,531.5524289000023,None,1,,,,,,,,,elpida_23_10_23(2),shielded_ultracortex,2023-10-23_16h52.03.492,Oddball_task,2022.2.5,59.556813925447344,
target,soundFiles/1200Hz_-3dBFS_3s_44.1kHz.wav',t,2000,11,0,44,3,,,,,531.5869310000016,532.549226500003,532.5470091900013,535.0482487000008,t,1,0.8504797000023245,,,,,,,,elpida_23_10_23(2),shielded_ultracortex,2023-10-23_16h52.03.492,Oddball_task,2022.2.5,59.556813925447344,
standard,soundFiles/1000Hz_-3dBFS_3s_44.1kHz.wav',None,1000,11,1,45,1,,,,,535.0701454000009,536.051112000001,536.0492481900026,538.5519469999999,None,1,,,,,,,,,elpida_23_10_23(2),shielded_ultracortex,2023-10-23_16h52.03.492,Oddball_task,2022.2.5,59.556813925447344,
standard,soundFiles/1000Hz_-3dBFS_3s_44.1kHz.wav',None,1000,11,2,46,2,,,,,538.5691876000019,539.5379733000009,539.5385605899999,542.0383521000003,None,1,,,,,,,,,elpida_23_10_23(2),shielded_ultracortex,2023-10-23_16h52.03.492,Oddball_task,2022.2.5,59.556813925447344,
standard,soundFiles/1000Hz_-3dBFS_3s_44.1kHz.wav',None,1000,11,3,47,0,,,,,542.0547036999997,543.0394417000025,543.0427592900003,545.5431134000028,None,1,,,,,,,,,elpida_23_10_23(2),shielded_ultracortex,2023-10-23_16h52.03.492,Oddball_task,2022.2.5,59.556813925447344,
target,soundFiles/1200Hz_-3dBFS_3s_44.1kHz.wav',t,2000,12,0,48,3,,,,,545.5569467000023,546.5430510000006,546.5416963900013,549.043510800002,t,1,0.48646720000033383,,,,,,,,elpida_23_10_23(2),shielded_ultracortex,2023-10-23_16h52.03.492,Oddball_task,2022.2.5,59.556813925447344,
standard,soundFiles/1000Hz_-3dBFS_3s_44.1kHz.wav',None,1000,12,1,49,1,,,,,549.0606498000016,550.0453764000013,550.0454437899996,552.5471066999999,None,1,,551.0451573000028,,,,,,,elpida_23_10_23(2),shielded_ultracortex,2023-10-23_16h52.03.492,Oddball_task,2022.2.5,59.556813925447344,
standard,soundFiles/1000Hz_-3dBFS_3s_44.1kHz.wav',None,1000,12,2,50,2,,,,,552.566427400001,553.5480593000029,553.5505024900001,556.0505961000017,None,1,,,,,,,,,elpida_23_10_23(2),shielded_ultracortex,2023-10-23_16h52.03.492,Oddball_task,2022.2.5,59.556813925447344,
standard,soundFiles/1000Hz_-3dBFS_3s_44.1kHz.wav',None,1000,12,3,51,0,,,,,556.0659288999996,557.0517086,557.0551423900022,559.5528768000004,None,1,,,,,,,,,elpida_23_10_23(2),shielded_ultracortex,2023-10-23_16h52.03.492,Oddball_task,2022.2.5,59.556813925447344,
standard,soundFiles/1000Hz_-3dBFS_3s_44.1kHz.wav',None,1000,13,0,52,0,,,,,559.5695248000011,560.5548812000015,560.5452702900027,,None,1,,,,,,,,,elpida_23_10_23(2),shielded_ultracortex,2023-10-23_16h52.03.492,Oddball_task,2022.2.5,59.556813925447344,
standard,soundFiles/1000Hz_-3dBFS_3s_44.1kHz.wav',None,1000,13,1,53,1,,,,,563.0550807,564.0410083999996,564.0403476900017,566.5428204000018,None,1,,565.0407975000016,,,,,,,elpida_23_10_23(2),shielded_ultracortex,2023-10-23_16h52.03.492,Oddball_task,2022.2.5,59.556813925447344,
target,soundFiles/1200Hz_-3dBFS_3s_44.1kHz.wav',t,2000,13,2,54,3,,,,,566.558802800002,567.5438342000016,567.5456457900025,570.0485179000025,t,1,0.786853700003121,,,,,,,,elpida_23_10_23(2),shielded_ultracortex,2023-10-23_16h52.03.492,Oddball_task,2022.2.5,59.556813925447344,
standard,soundFiles/1000Hz_-3dBFS_3s_44.1kHz.wav',None,1000,13,3,55,2,,,,,570.0635370000018,571.0466321000022,571.0457743900031,573.5478999000006,None,1,,,,,,,,,elpida_23_10_23(2),shielded_ultracortex,2023-10-23_16h52.03.492,Oddball_task,2022.2.5,59.556813925447344,
standard,soundFiles/1000Hz_-3dBFS_3s_44.1kHz.wav',None,1000,14,0,56,0,,,,,573.5644449000029,574.5485411000009,574.5491005900028,,None,1,,,,,,,,,elpida_23_10_23(2),shielded_ultracortex,2023-10-23_16h52.03.492,Oddball_task,2022.2.5,59.556813925447344,
standard,soundFiles/1000Hz_-3dBFS_3s_44.1kHz.wav',None,1000,14,1,57,2,,,,,577.0878204,578.0521298000021,578.051795590002,,None,1,,,,,,,,,elpida_23_10_23(2),shielded_ultracortex,2023-10-23_16h52.03.492,Oddball_task,2022.2.5,59.556813925447344,
target,soundFiles/1200Hz_-3dBFS_3s_44.1kHz.wav',t,2000,14,2,58,3,,,,,580.5542683000021,581.5379522000003,581.5386703900028,584.0436265999997,t,1,0.6558957000015653,,,,,,,,elpida_23_10_23(2),shielded_ultracortex,2023-10-23_16h52.03.492,Oddball_task,2022.2.5,59.556813925447344,
standard,soundFiles/1000Hz_-3dBFS_3s_44.1kHz.wav',None,1000,14,3,59,1,,,,,584.056112000002,585.0403606,585.0410119899996,587.545019000001,None,1,,,,,,,,,elpida_23_10_23(2),shielded_ultracortex,2023-10-23_16h52.03.492,Oddball_task,2022.2.5,59.556813925447344,
standard,soundFiles/1000Hz_-3dBFS_3s_44.1kHz.wav',None,1000,15,0,60,2,,,,,587.5591789999999,588.5441323000014,588.5443541900011,591.0498564000009,None,1,,,,,,,,,elpida_23_10_23(2),shielded_ultracortex,2023-10-23_16h52.03.492,Oddball_task,2022.2.5,59.556813925447344,
standard,soundFiles/1000Hz_-3dBFS_3s_44.1kHz.wav',None,1000,15,1,61,1,,,,,591.0621517,592.0456303999999,592.0491420900023,594.5503011000001,None,1,,,,,,,,,elpida_23_10_23(2),shielded_ultracortex,2023-10-23_16h52.03.492,Oddball_task,2022.2.5,59.556813925447344,
standard,soundFiles/1000Hz_-3dBFS_3s_44.1kHz.wav',None,1000,15,2,62,0,,,,,594.5650521000025,595.5525928000025,595.5491609900007,598.052487500001,None,1,,,,,,,,,elpida_23_10_23(2),shielded_ultracortex,2023-10-23_16h52.03.492,Oddball_task,2022.2.5,59.556813925447344,
target,soundFiles/1200Hz_-3dBFS_3s_44.1kHz.wav',t,2000,15,3,63,3,,,,,598.0701757999996,599.0531155000026,599.0543522899995,,t,1,0.7735819000008632,,,,,,,,elpida_23_10_23(2),shielded_ultracortex,2023-10-23_16h52.03.492,Oddball_task,2022.2.5,59.556813925447344,
standard,soundFiles/1000Hz_-3dBFS_3s_44.1kHz.wav',None,1000,16,0,64,0,,,,,601.5561868000004,602.5383636000006,602.5390848900013,605.0420225000016,None,1,,,,,,,,,elpida_23_10_23(2),shielded_ultracortex,2023-10-23_16h52.03.492,Oddball_task,2022.2.5,59.556813925447344,
standard,soundFiles/1000Hz_-3dBFS_3s_44.1kHz.wav',None,1000,16,1,65,2,,,,,605.0582284000011,606.0436057000006,606.0414855900005,608.5456621000012,None,1,,,,,,,,,elpida_23_10_23(2),shielded_ultracortex,2023-10-23_16h52.03.492,Oddball_task,2022.2.5,59.556813925447344,
standard,soundFiles/1000Hz_-3dBFS_3s_44.1kHz.wav',None,1000,16,2,66,1,,,,,608.5613942000018,609.5486335999994,609.5463443899996,,None,1,,610.5475427000019,,,,,,,elpida_23_10_23(2),shielded_ultracortex,2023-10-23_16h52.03.492,Oddball_task,2022.2.5,59.556813925447344,
target,soundFiles/1200Hz_-3dBFS_3s_44.1kHz.wav',t,2000,16,3,67,3,,,,,612.0802444000001,613.0479379999997,613.0471382900021,615.5512245000027,t,1,0.9423217000003206,,,,,,,,elpida_23_10_23(2),shielded_ultracortex,2023-10-23_16h52.03.492,Oddball_task,2022.2.5,59.556813925447344,
target,soundFiles/1200Hz_-3dBFS_3s_44.1kHz.wav',t,2000,17,0,68,3,,,,,615.5675255000024,616.551955400002,616.5516257900006,619.0531098000029,t,1,0.8927874000000884,,,,,,,,elpida_23_10_23(2),shielded_ultracortex,2023-10-23_16h52.03.492,Oddball_task,2022.2.5,59.556813925447344,
standard,soundFiles/1000Hz_-3dBFS_3s_44.1kHz.wav',None,1000,17,1,69,1,,,,,619.070254000002,620.0395754000019,620.0382908900017,622.5402126000008,None,1,,,,,,,,,elpida_23_10_23(2),shielded_ultracortex,2023-10-23_16h52.03.492,Oddball_task,2022.2.5,59.556813925447344,
standard,soundFiles/1000Hz_-3dBFS_3s_44.1kHz.wav',None,1000,17,2,70,0,,,,,622.5562081000026,623.5628467000024,623.5487159900028,,None,1,,,,,,,,,elpida_23_10_23(2),shielded_ultracortex,2023-10-23_16h52.03.492,Oddball_task,2022.2.5,59.556813925447344,
standard,soundFiles/1000Hz_-3dBFS_3s_44.1kHz.wav',None,1000,17,3,71,2,,,,,626.0598462000016,627.0427684999995,627.0426350900004,629.5465021000018,None,1,,,,,,,,,elpida_23_10_23(2),shielded_ultracortex,2023-10-23_16h52.03.492,Oddball_task,2022.2.5,59.556813925447344,
standard,soundFiles/1000Hz_-3dBFS_3s_44.1kHz.wav',None,1000,18,0,72,0,,,,,629.5609165999995,630.5453068000024,630.5469760900003,633.0490694,None,1,,631.5461737000005,,,,,,,elpida_23_10_23(2),shielded_ultracortex,2023-10-23_16h52.03.492,Oddball_task,2022.2.5,59.556813925447344,
standard,soundFiles/1000Hz_-3dBFS_3s_44.1kHz.wav',None,1000,18,1,73,2,,,,,633.0654514000016,634.0495251000029,634.0502537900018,636.5523936000027,None,1,,,,,,,,,elpida_23_10_23(2),shielded_ultracortex,2023-10-23_16h52.03.492,Oddball_task,2022.2.5,59.556813925447344,
target,soundFiles/1200Hz_-3dBFS_3s_44.1kHz.wav',t,2000,18,2,74,3,,,,,636.5670361000011,637.5528129000013,637.5542347899998,,t,1,0.6746715999979642,,,,,,,,elpida_23_10_23(2),shielded_ultracortex,2023-10-23_16h52.03.492,Oddball_task,2022.2.5,59.556813925447344,
standard,soundFiles/1000Hz_-3dBFS_3s_44.1kHz.wav',None,1000,18,3,75,1,,,,,640.0543456000014,641.039564900002,641.0385685900026,643.5426197000015,None,1,,,,,,,,,elpida_23_10_23(2),shielded_ultracortex,2023-10-23_16h52.03.492,Oddball_task,2022.2.5,59.556813925447344,
standard,soundFiles/1000Hz_-3dBFS_3s_44.1kHz.wav',None,1000,19,0,76,0,,,,,643.5571008000006,644.5414644000011,644.5414164900019,647.0423894000014,None,1,,645.5412894000001,,,,,,,elpida_23_10_23(2),shielded_ultracortex,2023-10-23_16h52.03.492,Oddball_task,2022.2.5,59.556813925447344,
standard,soundFiles/1000Hz_-3dBFS_3s_44.1kHz.wav',None,1000,19,1,77,1,,,,,647.0592410999998,648.0449262000002,648.0437730900001,650.5473276000012,None,1,,,,,,,,,elpida_23_10_23(2),shielded_ultracortex,2023-10-23_16h52.03.492,Oddball_task,2022.2.5,59.556813925447344,
standard,soundFiles/1000Hz_-3dBFS_3s_44.1kHz.wav',None,1000,19,2,78,2,,,,,650.5635670000011,651.5497307000005,651.5480551900025,654.0493071000019,None,1,,,,,,,,,elpida_23_10_23(2),shielded_ultracortex,2023-10-23_16h52.03.492,Oddball_task,2022.2.5,59.556813925447344,
target,soundFiles/1200Hz_-3dBFS_3s_44.1kHz.wav',t,2000,19,3,79,3,,,,,654.0666488999996,655.049248000003,655.0504033900022,657.5513778000022,t,1,0.6119977999987896,,,,,,,,elpida_23_10_23(2),shielded_ultracortex,2023-10-23_16h52.03.492,Oddball_task,2022.2.5,59.556813925447344,
standard,soundFiles/1000Hz_-3dBFS_3s_44.1kHz.wav',None,1000,20,0,80,1,,,,,657.5714852000019,658.5375413000002,658.5385557899997,661.0388611000017,None,1,,,,,,,,,elpida_23_10_23(2),shielded_ultracortex,2023-10-23_16h52.03.492,Oddball_task,2022.2.5,59.556813925447344,
standard,soundFiles/1000Hz_-3dBFS_3s_44.1kHz.wav',None,1000,20,1,81,0,,,,,661.0555064,662.0383658000028,662.0392765900021,664.5404228000007,None,1,,,,,,,,,elpida_23_10_23(2),shielded_ultracortex,2023-10-23_16h52.03.492,Oddball_task,2022.2.5,59.556813925447344,
target,soundFiles/1200Hz_-3dBFS_3s_44.1kHz.wav',t,2000,20,2,82,3,,,,,664.5604104000013,665.5416729000026,665.5421796899998,668.0436399999999,t,1,0.784465700002329,666.5452729000026,,,,,,,elpida_23_10_23(2),shielded_ultracortex,2023-10-23_16h52.03.492,Oddball_task,2022.2.5,59.556813925447344,
standard,soundFiles/1000Hz_-3dBFS_3s_44.1kHz.wav',None,1000,20,3,83,2,,,,,668.0602619000019,669.0474391999996,669.0453619900024,671.546956000002,None,1,,,,,,,,,elpida_23_10_23(2),shielded_ultracortex,2023-10-23_16h52.03.492,Oddball_task,2022.2.5,59.556813925447344,
standard,soundFiles/1000Hz_-3dBFS_3s_44.1kHz.wav',None,1000,21,0,84,1,,,,,671.5643230999995,672.5476133000011,672.5495376900024,675.050065200001,None,1,,,,,,,,,elpida_23_10_23(2),shielded_ultracortex,2023-10-23_16h52.03.492,Oddball_task,2022.2.5,59.556813925447344,
target,soundFiles/1200Hz_-3dBFS_3s_44.1kHz.wav',t,2000,21,1,85,3,,,,,675.065848000002,676.0502068999995,676.0540381900016,678.554115400002,t,1,0.580440699999599,,,,,,,,elpida_23_10_23(2),shielded_ultracortex,2023-10-23_16h52.03.492,Oddball_task,2022.2.5,59.556813925447344,
standard,soundFiles/1000Hz_-3dBFS_3s_44.1kHz.wav',None,1000,21,2,86,2,,,,,678.5710196,679.5397919999996,679.5378364900014,682.0398818000031,None,1,,,,,,,,,elpida_23_10_23(2),shielded_ultracortex,2023-10-23_16h52.03.492,Oddball_task,2022.2.5,59.556813925447344,
standard,soundFiles/1000Hz_-3dBFS_3s_44.1kHz.wav',None,1000,21,3,87,0,,,,,682.0590741000015,683.0406820999997,683.040034790002,685.542027200001,None,1,,,,,,,,,elpida_23_10_23(2),shielded_ultracortex,2023-10-23_16h52.03.492,Oddball_task,2022.2.5,59.556813925447344,
standard,soundFiles/1000Hz_-3dBFS_3s_44.1kHz.wav',None,1000,22,0,88,2,,,,,685.5599082000008,686.5425950000026,686.5433330900003,689.0451049000003,None,1,,,,,,,,,elpida_23_10_23(2),shielded_ultracortex,2023-10-23_16h52.03.492,Oddball_task,2022.2.5,59.556813925447344,
target,soundFiles/1200Hz_-3dBFS_3s_44.1kHz.wav',t,2000,22,1,89,3,,,,,689.062423000003,690.0451767000013,690.0469354900004,692.548160600003,t,1,0.613681999999244,,,,,,,,elpida_23_10_23(2),shielded_ultracortex,2023-10-23_16h52.03.492,Oddball_task,2022.2.5,59.556813925447344,
standard,soundFiles/1000Hz_-3dBFS_3s_44.1kHz.wav',None,1000,22,2,90,0,,,,,692.5658014,693.5500026000009,693.5512575900018,696.0541322999998,None,1,,,,,,,,,elpida_23_10_23(2),shielded_ultracortex,2023-10-23_16h52.03.492,Oddball_task,2022.2.5,59.556813925447344,
standard,soundFiles/1000Hz_-3dBFS_3s_44.1kHz.wav',None,1000,22,3,91,1,,,,,696.067555900001,697.0528221000022,697.0518155900015,,None,1,,,,,,,,,elpida_23_10_23(2),shielded_ultracortex,2023-10-23_16h52.03.492,Oddball_task,2022.2.5,59.556813925447344,
standard,soundFiles/1000Hz_-3dBFS_3s_44.1kHz.wav',None,1000,23,0,92,1,,,,,699.5542203000005,700.5386386999999,700.5382332899997,703.0410976000021,None,1,,,,,,,,,elpida_23_10_23(2),shielded_ultracortex,2023-10-23_16h52.03.492,Oddball_task,2022.2.5,59.556813925447344,
standard,soundFiles/1000Hz_-3dBFS_3s_44.1kHz.wav',None,1000,23,1,93,2,,,,,703.0570713000016,704.0421631999998,704.0409351900005,706.5450202000029,None,1,,,,,,,,,elpida_23_10_23(2),shielded_ultracortex,2023-10-23_16h52.03.492,Oddball_task,2022.2.5,59.556813925447344,
target,soundFiles/1200Hz_-3dBFS_3s_44.1kHz.wav',t,2000,23,2,94,3,,,,,706.5585339999998,707.5443011000025,707.54536979,710.0494622000006,t,1,0.45206099999995786,,,,,,,,elpida_23_10_23(2),shielded_ultracortex,2023-10-23_16h52.03.492,Oddball_task,2022.2.5,59.556813925447344,
standard,soundFiles/1000Hz_-3dBFS_3s_44.1kHz.wav',None,1000,23,3,95,0,,,,,710.0620000000017,711.0478882000025,711.0483204899999,713.5490551000003,None,1,,712.0495728999995,,,,,,,elpida_23_10_23(2),shielded_ultracortex,2023-10-23_16h52.03.492,Oddball_task,2022.2.5,59.556813925447344,
target,soundFiles/1200Hz_-3dBFS_3s_44.1kHz.wav',t,2000,24,0,96,3,,,,,713.5659670000023,714.5492531000018,714.5499742900017,717.052377,t,1,0.5485990999986825,,,,,,,,elpida_23_10_23(2),shielded_ultracortex,2023-10-23_16h52.03.492,Oddball_task,2022.2.5,59.556813925447344,
standard,soundFiles/1000Hz_-3dBFS_3s_44.1kHz.wav',None,1000,24,1,97,2,,,,,717.0691640000005,718.0515736000016,718.0542827900015,,None,1,,,,,,,,,elpida_23_10_23(2),shielded_ultracortex,2023-10-23_16h52.03.492,Oddball_task,2022.2.5,59.556813925447344,
standard,soundFiles/1000Hz_-3dBFS_3s_44.1kHz.wav',None,1000,24,2,98,0,,,,,720.5541535000011,721.5386715000022,721.5387307900007,724.0429521000005,None,1,,,,,,,,,elpida_23_10_23(2),shielded_ultracortex,2023-10-23_16h52.03.492,Oddball_task,2022.2.5,59.556813925447344,
standard,soundFiles/1000Hz_-3dBFS_3s_44.1kHz.wav',None,1000,24,3,99,1,,,,,724.0585513000005,725.0432946000001,725.0416836900029,727.5440129000017,None,1,,,,,,,,,elpida_23_10_23(2),shielded_ultracortex,2023-10-23_16h52.03.492,Oddball_task,2022.2.5,59.556813925447344,
standard,soundFiles/1000Hz_-3dBFS_3s_44.1kHz.wav',None,1000,25,0,100,1,,,,,727.5604158999995,728.5460142000011,728.5450452900029,731.046731100003,None,1,,,,,,,,,elpida_23_10_23(2),shielded_ultracortex,2023-10-23_16h52.03.492,Oddball_task,2022.2.5,59.556813925447344,
standard,soundFiles/1000Hz_-3dBFS_3s_44.1kHz.wav',None,1000,25,1,101,0,,,,,731.0642353000003,732.051066400003,732.0487333900007,734.550950300003,None,1,,733.0521512000014,,,,,,,elpida_23_10_23(2),shielded_ultracortex,2023-10-23_16h52.03.492,Oddball_task,2022.2.5,59.556813925447344,
target,soundFiles/1200Hz_-3dBFS_3s_44.1kHz.wav',t,2000,25,2,102,3,,,,,734.5670800000007,735.5499817000018,735.5513598900022,,t,1,0.6153936999980942,,,,,,,,elpida_23_10_23(2),shielded_ultracortex,2023-10-23_16h52.03.492,Oddball_task,2022.2.5,59.556813925447344,
standard,soundFiles/1000Hz_-3dBFS_3s_44.1kHz.wav',None,1000,25,3,103,2,,,,,738.0527795000016,739.053301400003,739.0570891900013,,None,1,,,,,,,,,elpida_23_10_23(2),shielded_ultracortex,2023-10-23_16h52.03.492,Oddball_task,2022.2.5,59.556813925447344,
target,soundFiles/1200Hz_-3dBFS_3s_44.1kHz.wav',t,2000,26,0,104,3,,,,,741.5549761000002,742.5400862999995,742.5412780900031,745.0420551000025,t,1,0.6867972999971244,,,,,,,,elpida_23_10_23(2),shielded_ultracortex,2023-10-23_16h52.03.492,Oddball_task,2022.2.5,59.556813925447344,
standard,soundFiles/1000Hz_-3dBFS_3s_44.1kHz.wav',None,1000,26,1,105,1,,,,,745.0592601999997,746.0430581,746.0426176900025,748.5443854000005,None,1,,747.0434740000019,,,,,,,elpida_23_10_23(2),shielded_ultracortex,2023-10-23_16h52.03.492,Oddball_task,2022.2.5,59.556813925447344,
standard,soundFiles/1000Hz_-3dBFS_3s_44.1kHz.wav',None,1000,26,2,106,2,,,,,748.5634986000005,749.5452915000023,749.54514619,752.0480777000012,None,1,,,,,,,,,elpida_23_10_23(2),shielded_ultracortex,2023-10-23_16h52.03.492,Oddball_task,2022.2.5,59.556813925447344,
standard,soundFiles/1000Hz_-3dBFS_3s_44.1kHz.wav',None,1000,26,3,107,0,,,,,752.0651410000028,753.050264700003,753.0493318899996,,None,1,,754.0503325000027,,,,,,,elpida_23_10_23(2),shielded_ultracortex,2023-10-23_16h52.03.492,Oddball_task,2022.2.5,59.556813925447344,
standard,soundFiles/1000Hz_-3dBFS_3s_44.1kHz.wav',None,1000,27,0,108,0,,,,,755.5703272000028,756.5728299000002,756.54927079,,None,1,,,,,,,,,elpida_23_10_23(2),shielded_ultracortex,2023-10-23_16h52.03.492,Oddball_task,2022.2.5,59.556813925447344,
standard,soundFiles/1000Hz_-3dBFS_3s_44.1kHz.wav',None,1000,27,1,109,1,,,,,759.0714091000009,760.0376888000028,760.0430963900023,762.5405888000023,None,1,,,,,,,,,elpida_23_10_23(2),shielded_ultracortex,2023-10-23_16h52.03.492,Oddball_task,2022.2.5,59.556813925447344,
target,soundFiles/1200Hz_-3dBFS_3s_44.1kHz.wav',t,2000,27,2,110,3,,,,,762.5601784000028,763.5403898000004,763.5421479900021,766.0437545000023,t,1,0.5044783000012103,,,,,,,,elpida_23_10_23(2),shielded_ultracortex,2023-10-23_16h52.03.492,Oddball_task,2022.2.5,59.556813925447344,
standard,soundFiles/1000Hz_-3dBFS_3s_44.1kHz.wav',None,1000,27,3,111,2,,,,,766.0653095000016,767.0444062000024,767.0455640900025,769.5462509999998,None,1,,768.0448658000023,,,,,,,elpida_23_10_23(2),shielded_ultracortex,2023-10-23_16h52.03.492,Oddball_task,2022.2.5,59.556813925447344,
target,soundFiles/1200Hz_-3dBFS_3s_44.1kHz.wav',t,2000,28,0,112,3,,,,,769.5623166000005,770.5476401000014,770.5485552900016,773.0490946000027,t,1,0.5577881000026537,,,,,,,,elpida_23_10_23(2),shielded_ultracortex,2023-10-23_16h52.03.492,Oddball_task,2022.2.5,59.556813925447344,
standard,soundFiles/1000Hz_-3dBFS_3s_44.1kHz.wav',None,1000,28,1,113,2,,,,,773.068302300002,774.0488116000015,774.0500547899999,776.5513396999995,None,1,,,,,,,,,elpida_23_10_23(2),shielded_ultracortex,2023-10-23_16h52.03.492,Oddball_task,2022.2.5,59.556813925447344,
standard,soundFiles/1000Hz_-3dBFS_3s_44.1kHz.wav',None,1000,28,2,114,1,,,,,776.5699816000015,777.5546028999997,777.554852490003,,None,1,,,,,,,,,elpida_23_10_23(2),shielded_ultracortex,2023-10-23_16h52.03.492,Oddball_task,2022.2.5,59.556813925447344,
standard,soundFiles/1000Hz_-3dBFS_3s_44.1kHz.wav',None,1000,28,3,115,0,,,,,780.0555676000004,781.0384002999999,781.0385771900026,783.5500124000027,None,1,,,,,,,,,elpida_23_10_23(2),shielded_ultracortex,2023-10-23_16h52.03.492,Oddball_task,2022.2.5,59.556813925447344,
target,soundFiles/1200Hz_-3dBFS_3s_44.1kHz.wav',t,2000,29,0,116,3,,,,,783.6053759999995,784.5422359000004,784.5448403899998,787.0427197999998,t,1,0.8264715000004799,,,,,,,,elpida_23_10_23(2),shielded_ultracortex,2023-10-23_16h52.03.492,Oddball_task,2022.2.5,59.556813925447344,
standard,soundFiles/1000Hz_-3dBFS_3s_44.1kHz.wav',None,1000,29,1,117,1,,,,,787.0601724000007,788.0460974000016,788.0469230900005,790.5466075000004,None,1,,,,,,,,,elpida_23_10_23(2),shielded_ultracortex,2023-10-23_16h52.03.492,Oddball_task,2022.2.5,59.556813925447344,
standard,soundFiles/1000Hz_-3dBFS_3s_44.1kHz.wav',None,1000,29,2,118,2,,,,,790.5639403000023,791.5495969000003,791.5494768900014,794.050865600002,None,1,,,,,,,,,elpida_23_10_23(2),shielded_ultracortex,2023-10-23_16h52.03.492,Oddball_task,2022.2.5,59.556813925447344,
standard,soundFiles/1000Hz_-3dBFS_3s_44.1kHz.wav',None,1000,29,3,119,0,,,,,794.0652565000019,795.0502618999999,795.0553702900022,797.553333900003,None,1,,,,,,,,,elpida_23_10_23(2),shielded_ultracortex,2023-10-23_16h52.03.492,Oddball_task,2022.2.5,59.556813925447344,
standard,soundFiles/1000Hz_-3dBFS_3s_44.1kHz.wav',None,1000,30,0,120,2,,,,,797.5680676000011,798.5544637000021,798.5532407900016,,None,1,,,,,,,,,elpida_23_10_23(2),shielded_ultracortex,2023-10-23_16h52.03.492,Oddball_task,2022.2.5,59.556813925447344,
target,soundFiles/1200Hz_-3dBFS_3s_44.1kHz.wav',t,2000,30,1,121,3,,,,,801.0550882999996,802.0394874000012,802.0409180900012,804.5429244000006,t,1,0.6405727999990631,,,,,,,,elpida_23_10_23(2),shielded_ultracortex,2023-10-23_16h52.03.492,Oddball_task,2022.2.5,59.556813925447344,
standard,soundFiles/1000Hz_-3dBFS_3s_44.1kHz.wav',None,1000,30,2,122,1,,,,,804.5613962999996,805.5444596000016,805.5439878900022,808.0445710000022,None,1,,,,,,,,,elpida_23_10_23(2),shielded_ultracortex,2023-10-23_16h52.03.492,Oddball_task,2022.2.5,59.556813925447344,
standard,soundFiles/1000Hz_-3dBFS_3s_44.1kHz.wav',None,1000,30,3,123,0,,,,,808.0628542000013,809.0470615000013,809.0455332900008,811.5481183000011,None,1,,,,,,,,,elpida_23_10_23(2),shielded_ultracortex,2023-10-23_16h52.03.492,Oddball_task,2022.2.5,59.556813925447344,
standard,soundFiles/1000Hz_-3dBFS_3s_44.1kHz.wav',None,1000,31,0,124,2,,,,,811.5648631000004,812.5489435000018,812.5487502900021,815.0515298000028,None,1,,,,,,,,,elpida_23_10_23(2),shielded_ultracortex,2023-10-23_16h52.03.492,Oddball_task,2022.2.5,59.556813925447344,
target,soundFiles/1200Hz_-3dBFS_3s_44.1kHz.wav',t,2000,31,1,125,3,,,,,815.0694571000022,816.0536710000015,816.0506151899997,,t,1,0.8985764000026393,,,,,,,,elpida_23_10_23(2),shielded_ultracortex,2023-10-23_16h52.03.492,Oddball_task,2022.2.5,59.556813925447344,
standard,soundFiles/1000Hz_-3dBFS_3s_44.1kHz.wav',None,1000,31,2,126,0,,,,,818.5760042000002,819.5374375000029,819.5386361900007,822.0399429000026,None,1,,,,,,,,,elpida_23_10_23(2),shielded_ultracortex,2023-10-23_16h52.03.492,Oddball_task,2022.2.5,59.556813925447344,
standard,soundFiles/1000Hz_-3dBFS_3s_44.1kHz.wav',None,1000,31,3,127,1,,,,,822.0565075000013,823.0421470000001,823.0418855900014,825.5434284000003,None,1,,,,,,,,,elpida_23_10_23(2),shielded_ultracortex,2023-10-23_16h52.03.492,Oddball_task,2022.2.5,59.556813925447344,
target,soundFiles/1200Hz_-3dBFS_3s_44.1kHz.wav',t,2000,32,0,128,3,,,,,825.5606187000012,826.5438391999996,826.5470474900019,,t,1,0.5673553999986325,,,,,,,,elpida_23_10_23(2),shielded_ultracortex,2023-10-23_16h52.03.492,Oddball_task,2022.2.5,59.556813925447344,
standard,soundFiles/1000Hz_-3dBFS_3s_44.1kHz.wav',None,1000,32,1,129,0,,,,,829.1034258,830.0500045000008,830.0474035900031,832.5490112000007,None,1,,,,,,,,,elpida_23_10_23(2),shielded_ultracortex,2023-10-23_16h52.03.492,Oddball_task,2022.2.5,59.556813925447344,
standard,soundFiles/1000Hz_-3dBFS_3s_44.1kHz.wav',None,1000,32,2,130,2,,,,,832.5647722000031,833.5522851000023,833.5493209900003,836.053253500002,None,1,,,,,,,,,elpida_23_10_23(2),shielded_ultracortex,2023-10-23_16h52.03.492,Oddball_task,2022.2.5,59.556813925447344,
standard,soundFiles/1000Hz_-3dBFS_3s_44.1kHz.wav',None,1000,32,3,131,1,,,,,836.0687607,837.0528388000021,837.0582642899997,839.5570860000007,None,1,,,,,,,,,elpida_23_10_23(2),shielded_ultracortex,2023-10-23_16h52.03.492,Oddball_task,2022.2.5,59.556813925447344,
target,soundFiles/1200Hz_-3dBFS_3s_44.1kHz.wav',t,2000,33,0,132,3,,,,,839.5708158000016,840.5376923000003,840.5390723900007,843.0395717000029,t,1,0.5541772999968089,,,,,,,,elpida_23_10_23(2),shielded_ultracortex,2023-10-23_16h52.03.492,Oddball_task,2022.2.5,59.556813925447344,
standard,soundFiles/1000Hz_-3dBFS_3s_44.1kHz.wav',None,1000,33,1,133,0,,,,,843.0575992000013,844.0841698000004,844.0650685900025,,None,1,,,,,,,,,elpida_23_10_23(2),shielded_ultracortex,2023-10-23_16h52.03.492,Oddball_task,2022.2.5,59.556813925447344,
standard,soundFiles/1000Hz_-3dBFS_3s_44.1kHz.wav',None,1000,33,2,134,2,,,,,846.5603255000024,847.5454091000029,847.5454737900025,850.0457067000025,None,1,,,,,,,,,elpida_23_10_23(2),shielded_ultracortex,2023-10-23_16h52.03.492,Oddball_task,2022.2.5,59.556813925447344,
standard,soundFiles/1000Hz_-3dBFS_3s_44.1kHz.wav',None,1000,33,3,135,1,,,,,850.0639698000014,851.0477498,851.0466405900031,853.5490137000015,None,1,,,,,,,,,elpida_23_10_23(2),shielded_ultracortex,2023-10-23_16h52.03.492,Oddball_task,2022.2.5,59.556813925447344,
standard,soundFiles/1000Hz_-3dBFS_3s_44.1kHz.wav',None,1000,34,0,136,1,,,,,853.5679696000007,854.5502290000004,854.5498955900027,857.0521231000021,None,1,,855.552098600001,,,,,,,elpida_23_10_23(2),shielded_ultracortex,2023-10-23_16h52.03.492,Oddball_task,2022.2.5,59.556813925447344,
target,soundFiles/1200Hz_-3dBFS_3s_44.1kHz.wav',t,2000,34,1,137,3,,,,,857.0688234000008,858.0548492000016,858.0555267900006,,t,1,0.5154263999975228,,,,,,,,elpida_23_10_23(2),shielded_ultracortex,2023-10-23_16h52.03.492,Oddball_task,2022.2.5,59.556813925447344,
standard,soundFiles/1000Hz_-3dBFS_3s_44.1kHz.wav',None,1000,34,2,138,2,,,,,860.5558491000011,861.5395449999996,861.5396422900001,864.0442882000025,None,1,,,,,,,,,elpida_23_10_23(2),shielded_ultracortex,2023-10-23_16h52.03.492,Oddball_task,2022.2.5,59.556813925447344,
standard,soundFiles/1000Hz_-3dBFS_3s_44.1kHz.wav',None,1000,34,3,139,0,,,,,864.0579398000009,865.0427248000015,865.0425429900013,867.5445505000025,None,1,,,,,,,,,elpida_23_10_23(2),shielded_ultracortex,2023-10-23_16h52.03.492,Oddball_task,2022.2.5,59.556813925447344,
standard,soundFiles/1000Hz_-3dBFS_3s_44.1kHz.wav',None,1000,35,0,140,0,,,,,867.5616958999999,868.5466338000006,868.5466777900026,871.0483641000028,None,1,,869.5473659000018,,,,,,,elpida_23_10_23(2),shielded_ultracortex,2023-10-23_16h52.03.492,Oddball_task,2022.2.5,59.556813925447344,
standard,soundFiles/1000Hz_-3dBFS_3s_44.1kHz.wav',None,1000,35,1,141,2,,,,,871.0649751000019,872.0491982000021,872.0513844900004,,None,1,,,,,,,,,elpida_23_10_23(2),shielded_ultracortex,2023-10-23_16h52.03.492,Oddball_task,2022.2.5,59.556813925447344,
standard,soundFiles/1000Hz_-3dBFS_3s_44.1kHz.wav',None,1000,35,2,142,1,,,,,874.5903694000008,875.5523011000005,875.5514918899996,878.054350800001,None,1,,876.5545321999998,,,,,,,elpida_23_10_23(2),shielded_ultracortex,2023-10-23_16h52.03.492,Oddball_task,2022.2.5,59.556813925447344,
target,soundFiles/1200Hz_-3dBFS_3s_44.1kHz.wav',t,2000,35,3,143,3,,,,,878.071880800002,879.0377007999996,879.0377000899996,881.539111500002,t,1,0.5487479000003077,,,,,,,,elpida_23_10_23(2),shielded_ultracortex,2023-10-23_16h52.03.492,Oddball_task,2022.2.5,59.556813925447344,
standard,soundFiles/1000Hz_-3dBFS_3s_44.1kHz.wav',None,1000,36,0,144,1,,,,,881.5569152000025,882.5402678999999,882.5403176900024,885.0439592000002,None,1,,,,,,,,,elpida_23_10_23(2),shielded_ultracortex,2023-10-23_16h52.03.492,Oddball_task,2022.2.5,59.556813925447344,
target,soundFiles/1200Hz_-3dBFS_3s_44.1kHz.wav',t,2000,36,1,145,3,,,,,885.0591526000026,886.0443296000012,886.0431152900007,888.5481959999997,t,1,0.6458853000003728,,,,,,,,elpida_23_10_23(2),shielded_ultracortex,2023-10-23_16h52.03.492,Oddball_task,2022.2.5,59.556813925447344,
standard,soundFiles/1000Hz_-3dBFS_3s_44.1kHz.wav',None,1000,36,2,146,2,,,,,888.5621917000026,889.5494920000019,889.5463603900014,892.0484348999998,None,1,,,,,,,,,elpida_23_10_23(2),shielded_ultracortex,2023-10-23_16h52.03.492,Oddball_task,2022.2.5,59.556813925447344,
standard,soundFiles/1000Hz_-3dBFS_3s_44.1kHz.wav',None,1000,36,3,147,0,,,,,892.0669011999998,893.0506409000009,893.0507832900028,895.5519172000022,None,1,,,,,,,,,elpida_23_10_23(2),shielded_ultracortex,2023-10-23_16h52.03.492,Oddball_task,2022.2.5,59.556813925447344,
standard,soundFiles/1000Hz_-3dBFS_3s_44.1kHz.wav',None,1000,37,0,148,1,,,,,895.5676305000015,896.5523395000018,896.5559001900026,,None,1,,,,,,,,,elpida_23_10_23(2),shielded_ultracortex,2023-10-23_16h52.03.492,Oddball_task,2022.2.5,59.556813925447344,
target,soundFiles/1200Hz_-3dBFS_3s_44.1kHz.wav',t,2000,37,1,149,3,,,,,899.054896200003,900.0395470000003,900.0398637900023,902.5462686000028,t,1,0.50948580000113,,,,,,,,elpida_23_10_23(2),shielded_ultracortex,2023-10-23_16h52.03.492,Oddball_task,2022.2.5,59.556813925447344,
standard,soundFiles/1000Hz_-3dBFS_3s_44.1kHz.wav',None,1000,37,2,150,0,,,,,902.5568175000008,903.5428724000012,903.5421670900021,906.0438504000012,None,1,,,,,,,,,elpida_23_10_23(2),shielded_ultracortex,2023-10-23_16h52.03.492,Oddball_task,2022.2.5,59.556813925447344,
standard,soundFiles/1000Hz_-3dBFS_3s_44.1kHz.wav',None,1000,37,3,151,2,,,,,906.0637824000005,907.0447242000009,907.0441114900011,909.5459571000029,None,1,,,,,,,,,elpida_23_10_23(2),shielded_ultracortex,2023-10-23_16h52.03.492,Oddball_task,2022.2.5,59.556813925447344,
standard,soundFiles/1000Hz_-3dBFS_3s_44.1kHz.wav',None,1000,38,0,152,0,,,,,909.5638379000011,910.5565571000006,910.5504601900018,,None,1,,,,,,,,,elpida_23_10_23(2),shielded_ultracortex,2023-10-23_16h52.03.492,Oddball_task,2022.2.5,59.556813925447344,
standard,soundFiles/1000Hz_-3dBFS_3s_44.1kHz.wav',None,1000,38,1,153,2,,,,,913.1238572000002,914.0528030000023,914.0544457900021,916.5519364000029,None,1,,,,,,,,,elpida_23_10_23(2),shielded_ultracortex,2023-10-23_16h52.03.492,Oddball_task,2022.2.5,59.556813925447344,
standard,soundFiles/1000Hz_-3dBFS_3s_44.1kHz.wav',None,1000,38,2,154,1,,,,,916.5699238000016,917.5579279000012,917.5538461900021,,None,1,,,,,,,,,elpida_23_10_23(2),shielded_ultracortex,2023-10-23_16h52.03.492,Oddball_task,2022.2.5,59.556813925447344,
target,soundFiles/1200Hz_-3dBFS_3s_44.1kHz.wav',t,2000,38,3,155,3,,,,,920.0748060000005,921.0397066000005,921.0405802900011,923.5437698999995,t,1,0.5699157999988529,,,,,,,,elpida_23_10_23(2),shielded_ultracortex,2023-10-23_16h52.03.492,Oddball_task,2022.2.5,59.556813925447344,
target,soundFiles/1200Hz_-3dBFS_3s_44.1kHz.wav',t,2000,39,0,156,3,,,,,923.5573833000017,924.5428033000026,924.5433958900019,927.0456482000009,t,1,0.6313647999995737,,,,,,,,elpida_23_10_23(2),shielded_ultracortex,2023-10-23_16h52.03.492,Oddball_task,2022.2.5,59.556813925447344,
standard,soundFiles/1000Hz_-3dBFS_3s_44.1kHz.wav',None,1000,39,1,157,1,,,,,927.0613580999998,928.045857000001,928.0471191900021,930.5492042000005,None,1,,,,,,,,,elpida_23_10_23(2),shielded_ultracortex,2023-10-23_16h52.03.492,Oddball_task,2022.2.5,59.556813925447344,
standard,soundFiles/1000Hz_-3dBFS_3s_44.1kHz.wav',None,1000,39,2,158,2,,,,,930.5640101000026,931.5492214000005,931.5520194900007,934.0503246000007,None,1,,,,,,,,,elpida_23_10_23(2),shielded_ultracortex,2023-10-23_16h52.03.492,Oddball_task,2022.2.5,59.556813925447344,
standard,soundFiles/1000Hz_-3dBFS_3s_44.1kHz.wav',None,1000,39,3,159,0,,,,,934.0677810000016,935.0513191000027,935.0512608900015,937.5556716000028,None,1,,936.0514002000018,,,,,,,elpida_23_10_23(2),shielded_ultracortex,2023-10-23_16h52.03.492,Oddball_task,2022.2.5,59.556813925447344,
target,soundFiles/1200Hz_-3dBFS_3s_44.1kHz.wav',t,2000,40,0,160,3,,,,,937.571579200001,938.5370328999998,938.5387125900004,941.0393447000024,t,1,0.4975083999997878,,,,,,,,elpida_23_10_23(2),shielded_ultracortex,2023-10-23_16h52.03.492,Oddball_task,2022.2.5,59.556813925447344,
standard,soundFiles/1000Hz_-3dBFS_3s_44.1kHz.wav',None,1000,40,1,161,0,,,,,941.0561044000024,942.0784086000021,942.0587778899996,,None,1,,,,,,,,,elpida_23_10_23(2),shielded_ultracortex,2023-10-23_16h52.03.492,Oddball_task,2022.2.5,59.556813925447344,
standard,soundFiles/1000Hz_-3dBFS_3s_44.1kHz.wav',None,1000,40,2,162,1,,,,,944.5623286000009,945.5451762000012,945.545173690002,948.0450181000015,None,1,,,,,,,,,elpida_23_10_23(2),shielded_ultracortex,2023-10-23_16h52.03.492,Oddball_task,2022.2.5,59.556813925447344,
standard,soundFiles/1000Hz_-3dBFS_3s_44.1kHz.wav',None,1000,40,3,163,2,,,,,948.0621350000001,949.0459504999999,949.0462906900018,951.5477248000025,None,1,,,,,,,,,elpida_23_10_23(2),shielded_ultracortex,2023-10-23_16h52.03.492,Oddball_task,2022.2.5,59.556813925447344,
standard,soundFiles/1000Hz_-3dBFS_3s_44.1kHz.wav',None,1000,41,0,164,0,,,,,951.5673843000004,952.5489234000015,952.5507307899995,,None,1,,,,,,,,,elpida_23_10_23(2),shielded_ultracortex,2023-10-23_16h52.03.492,Oddball_task,2022.2.5,59.556813925447344,
standard,soundFiles/1000Hz_-3dBFS_3s_44.1kHz.wav',None,1000,41,1,165,2,,,,,955.0992970000007,956.0512941000015,956.0542444900009,,None,1,,957.0563681000021,,,,,,,elpida_23_10_23(2),shielded_ultracortex,2023-10-23_16h52.03.492,Oddball_task,2022.2.5,59.556813925447344,
standard,soundFiles/1000Hz_-3dBFS_3s_44.1kHz.wav',None,1000,41,2,166,1,,,,,958.5548285000004,959.5383527000013,959.5378739899995,,None,1,,,,,,,,,elpida_23_10_23(2),shielded_ultracortex,2023-10-23_16h52.03.492,Oddball_task,2022.2.5,59.556813925447344,
target,soundFiles/1200Hz_-3dBFS_3s_44.1kHz.wav',t,2000,41,3,167,3,,,,,962.0799648000029,963.0408229000022,963.0410439900031,965.5444817000025,t,1,0.6939891000001808,,,,,,,,elpida_23_10_23(2),shielded_ultracortex,2023-10-23_16h52.03.492,Oddball_task,2022.2.5,59.556813925447344,
target,soundFiles/1200Hz_-3dBFS_3s_44.1kHz.wav',t,2000,42,0,168,3,,,,,965.5597226999998,966.5445838000014,966.5450009900003,969.0489483000019,t,1,0.743079799998668,,,,,,,,elpida_23_10_23(2),shielded_ultracortex,2023-10-23_16h52.03.492,Oddball_task,2022.2.5,59.556813925447344,
standard,soundFiles/1000Hz_-3dBFS_3s_44.1kHz.wav',None,1000,42,1,169,0,,,,,969.0627174000001,970.0473994000022,970.0476176899999,972.548681100001,None,1,,971.048844500001,,,,,,,elpida_23_10_23(2),shielded_ultracortex,2023-10-23_16h52.03.492,Oddball_task,2022.2.5,59.556813925447344,
standard,soundFiles/1000Hz_-3dBFS_3s_44.1kHz.wav',None,1000,42,2,170,1,,,,,972.5669750000015,973.550540100001,973.5506991900027,976.0509282000021,None,1,,,,,,,,,elpida_23_10_23(2),shielded_ultracortex,2023-10-23_16h52.03.492,Oddball_task,2022.2.5,59.556813925447344,
standard,soundFiles/1000Hz_-3dBFS_3s_44.1kHz.wav',None,1000,42,3,171,2,,,,,976.0682539000009,977.0535290000007,977.055894990003,,None,1,,,,,,,,,elpida_23_10_23(2),shielded_ultracortex,2023-10-23_16h52.03.492,Oddball_task,2022.2.5,59.556813925447344,
standard,soundFiles/1000Hz_-3dBFS_3s_44.1kHz.wav',None,1000,43,0,172,0,,,,,979.554807200002,980.540121500002,980.5393948900007,,None,1,,,,,,,,,elpida_23_10_23(2),shielded_ultracortex,2023-10-23_16h52.03.492,Oddball_task,2022.2.5,59.556813925447344,
target,soundFiles/1200Hz_-3dBFS_3s_44.1kHz.wav',t,2000,43,1,173,3,,,,,983.0957218000003,984.0438936000028,984.0432366900011,986.5450904000027,t,1,0.4925576000023284,,,,,,,,elpida_23_10_23(2),shielded_ultracortex,2023-10-23_16h52.03.492,Oddball_task,2022.2.5,59.556813925447344,
standard,soundFiles/1000Hz_-3dBFS_3s_44.1kHz.wav',None,1000,43,2,174,1,,,,,986.5612561000016,987.5449047000002,987.5471339900021,990.0478463,None,1,,,,,,,,,elpida_23_10_23(2),shielded_ultracortex,2023-10-23_16h52.03.492,Oddball_task,2022.2.5,59.556813925447344,
standard,soundFiles/1000Hz_-3dBFS_3s_44.1kHz.wav',None,1000,43,3,175,2,,,,,990.0640587000016,991.0503611000022,991.0487573900016,993.5506910000004,None,1,,,,,,,,,elpida_23_10_23(2),shielded_ultracortex,2023-10-23_16h52.03.492,Oddball_task,2022.2.5,59.556813925447344,
standard,soundFiles/1000Hz_-3dBFS_3s_44.1kHz.wav',None,1000,44,0,176,1,,,,,993.5668313000024,994.5505980000016,994.5545460900018,997.0538635000012,None,1,,,,,,,,,elpida_23_10_23(2),shielded_ultracortex,2023-10-23_16h52.03.492,Oddball_task,2022.2.5,59.556813925447344,
standard,soundFiles/1000Hz_-3dBFS_3s_44.1kHz.wav',None,1000,44,1,177,2,,,,,997.0706681000011,998.0591557000007,998.0542158900014,,None,1,,999.0548326000026,,,,,,,elpida_23_10_23(2),shielded_ultracortex,2023-10-23_16h52.03.492,Oddball_task,2022.2.5,59.556813925447344,
standard,soundFiles/1000Hz_-3dBFS_3s_44.1kHz.wav',None,1000,44,2,178,0,,,,,1000.6137642000031,1001.5403814000019,1001.5415836900017,1004.045742600003,None,1,,,,,,,,,elpida_23_10_23(2),shielded_ultracortex,2023-10-23_16h52.03.492,Oddball_task,2022.2.5,59.556813925447344,
target,soundFiles/1200Hz_-3dBFS_3s_44.1kHz.wav',t,2000,44,3,179,3,,,,,1004.0597398000027,1005.0459407000017,1005.0430197900012,1007.5454408000005,t,1,0.5237907999980962,,,,,,,,elpida_23_10_23(2),shielded_ultracortex,2023-10-23_16h52.03.492,Oddball_task,2022.2.5,59.556813925447344,
standard,soundFiles/1000Hz_-3dBFS_3s_44.1kHz.wav',None,1000,45,0,180,2,,,,,1007.5620646999996,1008.5465758000028,1008.5465297899998,1011.0489591000005,None,1,,,,,,,,,elpida_23_10_23(2),shielded_ultracortex,2023-10-23_16h52.03.492,Oddball_task,2022.2.5,59.556813925447344,
standard,soundFiles/1000Hz_-3dBFS_3s_44.1kHz.wav',None,1000,45,1,181,1,,,,,1011.0650225999998,1012.0504949999995,1012.0497184900003,1014.5531607000012,None,1,,,,,,,,,elpida_23_10_23(2),shielded_ultracortex,2023-10-23_16h52.03.492,Oddball_task,2022.2.5,59.556813925447344,
target,soundFiles/1200Hz_-3dBFS_3s_44.1kHz.wav',t,2000,45,2,182,3,,,,,1014.5684150000016,1015.5527768000029,1015.5553361900008,1018.0554569000014,t,1,0.5449797000001126,,,,,,,,elpida_23_10_23(2),shielded_ultracortex,2023-10-23_16h52.03.492,Oddball_task,2022.2.5,59.556813925447344,
standard,soundFiles/1000Hz_-3dBFS_3s_44.1kHz.wav',None,1000,45,3,183,0,,,,,1018.0708032000002,1019.0389930000019,1019.038326890003,1021.5402668000024,None,1,,,,,,,,,elpida_23_10_23(2),shielded_ultracortex,2023-10-23_16h52.03.492,Oddball_task,2022.2.5,59.556813925447344,
target,soundFiles/1200Hz_-3dBFS_3s_44.1kHz.wav',t,2000,46,0,184,3,,,,,1021.5601459999998,1022.5427947000026,1022.5414699900018,1025.0455411000003,t,1,0.8117363000019395,,,,,,,,elpida_23_10_23(2),shielded_ultracortex,2023-10-23_16h52.03.492,Oddball_task,2022.2.5,59.556813925447344,
standard,soundFiles/1000Hz_-3dBFS_3s_44.1kHz.wav',None,1000,46,1,185,0,,,,,1025.0605276000024,1026.0448185000023,1026.0441964900008,1028.5459126999995,None,1,,,,,,,,,elpida_23_10_23(2),shielded_ultracortex,2023-10-23_16h52.03.492,Oddball_task,2022.2.5,59.556813925447344,
standard,soundFiles/1000Hz_-3dBFS_3s_44.1kHz.wav',None,1000,46,2,186,1,,,,,1028.56308,1029.546991700001,1029.5479549899999,1032.0506472000015,None,1,,,,,,,,,elpida_23_10_23(2),shielded_ultracortex,2023-10-23_16h52.03.492,Oddball_task,2022.2.5,59.556813925447344,
standard,soundFiles/1000Hz_-3dBFS_3s_44.1kHz.wav',None,1000,46,3,187,2,,,,,1032.0659352000002,1033.052070400001,1033.05092149,,None,1,,,,,,,,,elpida_23_10_23(2),shielded_ultracortex,2023-10-23_16h52.03.492,Oddball_task,2022.2.5,59.556813925447344,
standard,soundFiles/1000Hz_-3dBFS_3s_44.1kHz.wav',None,1000,47,0,188,2,,,,,1035.5530747000012,1036.5524908000007,1036.553558690003,1039.0568960000019,None,1,,,1039.0568960000019,,,,,,elpida_23_10_23(2),shielded_ultracortex,2023-10-23_16h52.03.492,Oddball_task,2022.2.5,59.556813925447344,
standard,soundFiles/1000Hz_-3dBFS_3s_44.1kHz.wav',None,1000,47,1,189,0,,,,,1039.0568960000019,1040.0415426,1040.0393144899997,1042.5419409999995,None,1,,,,,,,,,elpida_23_10_23(2),shielded_ultracortex,2023-10-23_16h52.03.492,Oddball_task,2022.2.5,59.556813925447344,
standard,soundFiles/1000Hz_-3dBFS_3s_44.1kHz.wav',None,1000,47,2,190,1,,,,,1042.5596866000014,1043.5431086999997,1043.54716669,1046.0454191000026,None,1,,,,,,,,,elpida_23_10_23(2),shielded_ultracortex,2023-10-23_16h52.03.492,Oddball_task,2022.2.5,59.556813925447344,
target,soundFiles/1200Hz_-3dBFS_3s_44.1kHz.wav',t,2000,47,3,191,3,,,,,1046.0629762999997,1047.0474906000018,1047.046776490001,1049.546836100002,t,1,0.6596263000028557,,,,,,,,elpida_23_10_23(2),shielded_ultracortex,2023-10-23_16h52.03.492,Oddball_task,2022.2.5,59.556813925447344,
standard,soundFiles/1000Hz_-3dBFS_3s_44.1kHz.wav',None,1000,48,0,192,1,,,,,1049.5652168000015,1050.5473334000017,1050.5486381899998,1053.0509141000002,None,1,,,,,,,,,elpida_23_10_23(2),shielded_ultracortex,2023-10-23_16h52.03.492,Oddball_task,2022.2.5,59.556813925447344,
target,soundFiles/1200Hz_-3dBFS_3s_44.1kHz.wav',t,2000,48,1,193,3,,,,,1053.0675425000009,1054.0537277000003,1054.051794490001,1056.5537602000004,t,1,0.6182673999974213,,,,,,,,elpida_23_10_23(2),shielded_ultracortex,2023-10-23_16h52.03.492,Oddball_task,2022.2.5,59.556813925447344,
standard,soundFiles/1000Hz_-3dBFS_3s_44.1kHz.wav',None,1000,48,2,194,2,,,,,1056.5698510000002,1057.5398375000004,1057.5427201900009,1060.0402106000001,None,1,,,,,,,,,elpida_23_10_23(2),shielded_ultracortex,2023-10-23_16h52.03.492,Oddball_task,2022.2.5,59.556813925447344,
standard,soundFiles/1000Hz_-3dBFS_3s_44.1kHz.wav',None,1000,48,3,195,0,,,,,1060.0564303000028,1061.0411564999995,1061.0409563900018,1063.5448008000021,None,1,,,,,,,,,elpida_23_10_23(2),shielded_ultracortex,2023-10-23_16h52.03.492,Oddball_task,2022.2.5,59.556813925447344,
standard,soundFiles/1000Hz_-3dBFS_3s_44.1kHz.wav',None,1000,49,0,196,2,,,,,1063.5589815000021,1064.5433851000016,1064.5434526900015,1067.0456081000011,None,1,,,,,,,,,elpida_23_10_23(2),shielded_ultracortex,2023-10-23_16h52.03.492,Oddball_task,2022.2.5,59.556813925447344,
standard,soundFiles/1000Hz_-3dBFS_3s_44.1kHz.wav',None,1000,49,1,197,1,,,,,1067.0624949000012,1068.046488,1068.0478624900013,1070.5483482000018,None,1,,,,,,,,,elpida_23_10_23(2),shielded_ultracortex,2023-10-23_16h52.03.492,Oddball_task,2022.2.5,59.556813925447344,
target,soundFiles/1200Hz_-3dBFS_3s_44.1kHz.wav',t,2000,49,2,198,3,,,,,1070.5652148000008,1071.5508704000022,1071.5499579900013,1074.0518388000019,t,1,0.5877288000010594,,,,,,,,elpida_23_10_23(2),shielded_ultracortex,2023-10-23_16h52.03.492,Oddball_task,2022.2.5,59.556813925447344,
standard,soundFiles/1000Hz_-3dBFS_3s_44.1kHz.wav',None,1000,49,3,199,0,,,,,1074.0671045000017,1075.0525288999997,1075.0516355900024,1077.5537457000028,None,1,,,,,,,,,elpida_23_10_23(2),shielded_ultracortex,2023-10-23_16h52.03.492,Oddball_task,2022.2.5,59.556813925447344,
standard,soundFiles/1000Hz_-3dBFS_3s_44.1kHz.wav',None,1000,50,0,200,1,,,,,1077.5707930000026,1078.5380987999997,1078.5403434900024,1081.0434246000004,None,1,,,,,,,,,elpida_23_10_23(2),shielded_ultracortex,2023-10-23_16h52.03.492,Oddball_task,2022.2.5,59.556813925447344,
target,soundFiles/1200Hz_-3dBFS_3s_44.1kHz.wav',t,2000,50,1,201,3,,,,,1081.0568459999995,1082.0419266999997,1082.0413631899999,1084.5435821000028,t,1,0.5578475999973307,,,,,,,,elpida_23_10_23(2),shielded_ultracortex,2023-10-23_16h52.03.492,Oddball_task,2022.2.5,59.556813925447344,
standard,soundFiles/1000Hz_-3dBFS_3s_44.1kHz.wav',None,1000,50,2,202,0,,,,,1084.560548700003,1085.5447985000028,1085.5441978900005,1088.0463821000012,None,1,,,,,,,,,elpida_23_10_23(2),shielded_ultracortex,2023-10-23_16h52.03.492,Oddball_task,2022.2.5,59.556813925447344,
standard,soundFiles/1000Hz_-3dBFS_3s_44.1kHz.wav',None,1000,50,3,203,2,,,,,1088.0628226000008,1089.049690900003,1089.0476688900005,1091.5490308000008,None,1,,,,,,,,,elpida_23_10_23(2),shielded_ultracortex,2023-10-23_16h52.03.492,Oddball_task,2022.2.5,59.556813925447344,
standard,soundFiles/1000Hz_-3dBFS_3s_44.1kHz.wav',None,1000,51,0,204,2,,,,,1091.5674435,1092.5350190000026,1092.5383241900006,1095.035419900003,None,1,,,,,,,,,elpida_23_10_23(2),shielded_ultracortex,2023-10-23_16h52.03.492,Oddball_task,2022.2.5,59.556813925447344,
standard,soundFiles/1000Hz_-3dBFS_3s_44.1kHz.wav',None,1000,51,1,205,0,,,,,1095.0692788000015,1096.0368866000026,1096.0377744900022,1098.5411562000008,None,1,,,,,,,,,elpida_23_10_23(2),shielded_ultracortex,2023-10-23_16h52.03.492,Oddball_task,2022.2.5,59.556813925447344,
target,soundFiles/1200Hz_-3dBFS_3s_44.1kHz.wav',t,2000,51,2,206,3,,,,,1098.5549688000028,1099.5395866,1099.5391006900015,1102.0413853000027,t,1,0.6110195000001113,,,,,,,,elpida_23_10_23(2),shielded_ultracortex,2023-10-23_16h52.03.492,Oddball_task,2022.2.5,59.556813925447344,
standard,soundFiles/1000Hz_-3dBFS_3s_44.1kHz.wav',None,1000,51,3,207,1,,,,,1102.0610232,1103.041692400002,1103.0465503900002,1105.5442586999998,None,1,,,,,,,,,elpida_23_10_23(2),shielded_ultracortex,2023-10-23_16h52.03.492,Oddball_task,2022.2.5,59.556813925447344,
target,soundFiles/1200Hz_-3dBFS_3s_44.1kHz.wav',t,2000,52,0,208,3,,,,,1105.5638051000024,1106.5489263000018,1106.545479590003,1109.0519275000006,t,1,0.6274143000009644,,,,,,,,elpida_23_10_23(2),shielded_ultracortex,2023-10-23_16h52.03.492,Oddball_task,2022.2.5,59.556813925447344,
standard,soundFiles/1000Hz_-3dBFS_3s_44.1kHz.wav',None,1000,52,1,209,1,,,,,1109.064326300002,1110.048670600001,1110.0493338900003,1112.550587400001,None,1,,,,,,,,,elpida_23_10_23(2),shielded_ultracortex,2023-10-23_16h52.03.492,Oddball_task,2022.2.5,59.556813925447344,
standard,soundFiles/1000Hz_-3dBFS_3s_44.1kHz.wav',None,1000,52,2,210,0,,,,,1112.5681546000014,1113.5507318000018,1113.5505495900022,1116.0528869000009,None,1,,,,,,,,,elpida_23_10_23(2),shielded_ultracortex,2023-10-23_16h52.03.492,Oddball_task,2022.2.5,59.556813925447344,
standard,soundFiles/1000Hz_-3dBFS_3s_44.1kHz.wav',None,1000,52,3,211,2,,,,,1116.0690871000006,1117.037659900001,1117.0381588900007,1119.539711700003,None,1,,,,,,,,,elpida_23_10_23(2),shielded_ultracortex,2023-10-23_16h52.03.492,Oddball_task,2022.2.5,59.556813925447344,
standard,soundFiles/1000Hz_-3dBFS_3s_44.1kHz.wav',None,1000,53,0,212,0,,,,,1119.5567670000019,1120.5409830000026,1120.5417946900004,1123.0480165000008,None,1,,,,,,,,,elpida_23_10_23(2),shielded_ultracortex,2023-10-23_16h52.03.492,Oddball_task,2022.2.5,59.556813925447344,
standard,soundFiles/1000Hz_-3dBFS_3s_44.1kHz.wav',None,1000,53,1,213,2,,,,,1123.059030100001,1124.0431726999996,1124.0428456899997,1126.5452724000024,None,1,,,,,,,,,elpida_23_10_23(2),shielded_ultracortex,2023-10-23_16h52.03.492,Oddball_task,2022.2.5,59.556813925447344,
standard,soundFiles/1000Hz_-3dBFS_3s_44.1kHz.wav',None,1000,53,2,214,1,,,,,1126.5632585000021,1127.5467325999998,1127.5462244899998,1130.048590100003,None,1,,,,,,,,,elpida_23_10_23(2),shielded_ultracortex,2023-10-23_16h52.03.492,Oddball_task,2022.2.5,59.556813925447344,
target,soundFiles/1200Hz_-3dBFS_3s_44.1kHz.wav',t,2000,53,3,215,3,,,,,1130.0661316000005,1131.0492933000023,1131.0528226900012,1133.5536425000028,t,1,0.6333334000009927,,,,,,,,elpida_23_10_23(2),shielded_ultracortex,2023-10-23_16h52.03.492,Oddball_task,2022.2.5,59.556813925447344,
standard,soundFiles/1000Hz_-3dBFS_3s_44.1kHz.wav',None,1000,54,0,216,1,,,,,1133.566999300001,1134.5512689999996,1134.55238679,,None,1,,,,,,,,,elpida_23_10_23(2),shielded_ultracortex,2023-10-23_16h52.03.492,Oddball_task,2022.2.5,59.556813925447344,
standard,soundFiles/1000Hz_-3dBFS_3s_44.1kHz.wav',None,1000,54,1,217,0,,,,,1137.0540815000022,1138.0386577000027,1138.0390248900028,1140.5415651000003,None,1,,,,,,,,,elpida_23_10_23(2),shielded_ultracortex,2023-10-23_16h52.03.492,Oddball_task,2022.2.5,59.556813925447344,
target,soundFiles/1200Hz_-3dBFS_3s_44.1kHz.wav',t,2000,54,2,218,3,,,,,1140.5573796000026,1141.542295700001,1141.5427613900017,1144.0439466000025,t,1,0.652984500000457,,,,,,,,elpida_23_10_23(2),shielded_ultracortex,2023-10-23_16h52.03.492,Oddball_task,2022.2.5,59.556813925447344,
standard,soundFiles/1000Hz_-3dBFS_3s_44.1kHz.wav',None,1000,54,3,219,2,,,,,1144.061216500002,1145.044043400001,1145.046125890002,1147.546968300001,None,1,,,,,,,,,elpida_23_10_23(2),shielded_ultracortex,2023-10-23_16h52.03.492,Oddball_task,2022.2.5,59.556813925447344,
target,soundFiles/1200Hz_-3dBFS_3s_44.1kHz.wav',t,2000,55,0,220,3,,,,,1147.565557500002,1148.5480975000028,1148.5497999900024,1151.0497145000008,t,1,0.5447755999994115,,,,,,,,elpida_23_10_23(2),shielded_ultracortex,2023-10-23_16h52.03.492,Oddball_task,2022.2.5,59.556813925447344,
standard,soundFiles/1000Hz_-3dBFS_3s_44.1kHz.wav',None,1000,55,1,221,1,,,,,1151.0698415000006,1152.050514100003,1152.0526202900026,1154.5535654000014,None,1,,,,,,,,,elpida_23_10_23(2),shielded_ultracortex,2023-10-23_16h52.03.492,Oddball_task,2022.2.5,59.556813925447344,
standard,soundFiles/1000Hz_-3dBFS_3s_44.1kHz.wav',None,1000,55,2,222,2,,,,,1154.569422800003,1155.551682600002,1155.5551767900022,,None,1,,,,,,,,,elpida_23_10_23(2),shielded_ultracortex,2023-10-23_16h52.03.492,Oddball_task,2022.2.5,59.556813925447344,
standard,soundFiles/1000Hz_-3dBFS_3s_44.1kHz.wav',None,1000,55,3,223,0,,,,,1158.0561988000009,1159.0393447000024,1159.0451341899995,1161.5422905000014,None,1,,,,,,,,,elpida_23_10_23(2),shielded_ultracortex,2023-10-23_16h52.03.492,Oddball_task,2022.2.5,59.556813925447344,
standard,soundFiles/1000Hz_-3dBFS_3s_44.1kHz.wav',None,1000,56,0,224,2,,,,,1161.5598239000028,1162.5419323999995,1162.54654319,1165.043381800002,None,1,,,,,,,,,elpida_23_10_23(2),shielded_ultracortex,2023-10-23_16h52.03.492,Oddball_task,2022.2.5,59.556813925447344,
standard,soundFiles/1000Hz_-3dBFS_3s_44.1kHz.wav',None,1000,56,1,225,1,,,,,1165.060929700001,1166.0455503000012,1166.0464936900014,1168.5492195000006,None,1,,,,,,,,,elpida_23_10_23(2),shielded_ultracortex,2023-10-23_16h52.03.492,Oddball_task,2022.2.5,59.556813925447344,
standard,soundFiles/1000Hz_-3dBFS_3s_44.1kHz.wav',None,1000,56,2,226,0,,,,,1168.5638725999997,1169.5478108999996,1169.5487296900017,1172.0496359000026,None,1,,,,,,,,,elpida_23_10_23(2),shielded_ultracortex,2023-10-23_16h52.03.492,Oddball_task,2022.2.5,59.556813925447344,
target,soundFiles/1200Hz_-3dBFS_3s_44.1kHz.wav',t,2000,56,3,227,3,,,,,1172.0660094000013,1173.0516349999998,1173.0521338900023,1175.553180400002,t,1,0.6762533000000985,,,,,,,,elpida_23_10_23(2),shielded_ultracortex,2023-10-23_16h52.03.492,Oddball_task,2022.2.5,59.556813925447344,
standard,soundFiles/1000Hz_-3dBFS_3s_44.1kHz.wav',None,1000,57,0,228,2,,,,,1175.568727400001,1176.5402794000001,1176.5382253900013,1179.0426817000007,None,1,,,,,,,,,elpida_23_10_23(2),shielded_ultracortex,2023-10-23_16h52.03.492,Oddball_task,2022.2.5,59.556813925447344,
standard,soundFiles/1000Hz_-3dBFS_3s_44.1kHz.wav',None,1000,57,1,229,0,,,,,1179.0558020000026,1180.0411095000018,1180.0421220900014,1182.5415291000027,None,1,,,,,,,,,elpida_23_10_23(2),shielded_ultracortex,2023-10-23_16h52.03.492,Oddball_task,2022.2.5,59.556813925447344,
target,soundFiles/1200Hz_-3dBFS_3s_44.1kHz.wav',t,2000,57,2,230,3,,,,,1182.5613128000005,1183.5433854000003,1183.5439048899996,1186.0485767999999,t,1,0.6401635000001988,,,,,,,,elpida_23_10_23(2),shielded_ultracortex,2023-10-23_16h52.03.492,Oddball_task,2022.2.5,59.556813925447344,
standard,soundFiles/1000Hz_-3dBFS_3s_44.1kHz.wav',None,1000,57,3,231,1,,,,,1186.0620937000022,1187.0451840999995,1187.047150690002,1189.5477393,None,1,,,,,,,,,elpida_23_10_23(2),shielded_ultracortex,2023-10-23_16h52.03.492,Oddball_task,2022.2.5,59.556813925447344,
standard,soundFiles/1000Hz_-3dBFS_3s_44.1kHz.wav',None,1000,58,0,232,2,,,,,1189.5651646000006,1190.5511982000025,1190.5485579900003,1193.0519261000009,None,1,,,,,,,,,elpida_23_10_23(2),shielded_ultracortex,2023-10-23_16h52.03.492,Oddball_task,2022.2.5,59.556813925447344,
target,soundFiles/1200Hz_-3dBFS_3s_44.1kHz.wav',t,2000,58,1,233,3,,,,,1193.0674007000016,1194.0538381000006,1194.052927290001,1196.5552500000013,t,1,0.6462902999992366,,,,,,,,elpida_23_10_23(2),shielded_ultracortex,2023-10-23_16h52.03.492,Oddball_task,2022.2.5,59.556813925447344,
standard,soundFiles/1000Hz_-3dBFS_3s_44.1kHz.wav',None,1000,58,2,234,1,,,,,1196.5701187000013,1197.5386302000006,1197.5383812900025,1200.040199500003,None,1,,,,,,,,,elpida_23_10_23(2),shielded_ultracortex,2023-10-23_16h52.03.492,Oddball_task,2022.2.5,59.556813925447344,
standard,soundFiles/1000Hz_-3dBFS_3s_44.1kHz.wav',None,1000,58,3,235,0,,,,,1200.0563101000007,1201.0400086000009,1201.0410917899997,1203.5424991,None,1,,,,,,,,,elpida_23_10_23(2),shielded_ultracortex,2023-10-23_16h52.03.492,Oddball_task,2022.2.5,59.556813925447344,
standard,soundFiles/1000Hz_-3dBFS_3s_44.1kHz.wav',None,1000,59,0,236,2,,,,,1203.5593733000023,1204.5435472999998,1204.544388590001,1207.0465645000004,None,1,,,,,,,,,elpida_23_10_23(2),shielded_ultracortex,2023-10-23_16h52.03.492,Oddball_task,2022.2.5,59.556813925447344,
standard,soundFiles/1000Hz_-3dBFS_3s_44.1kHz.wav',None,1000,59,1,237,0,,,,,1207.0666906000006,1208.0475557999998,1208.0479150900017,1210.5503635000023,None,1,,,,,,,,,elpida_23_10_23(2),shielded_ultracortex,2023-10-23_16h52.03.492,Oddball_task,2022.2.5,59.556813925447344,
standard,soundFiles/1000Hz_-3dBFS_3s_44.1kHz.wav',None,1000,59,2,238,1,,,,,1210.5677250000008,1211.5510832,1211.551445990003,1214.0521061,None,1,,,,,,,,,elpida_23_10_23(2),shielded_ultracortex,2023-10-23_16h52.03.492,Oddball_task,2022.2.5,59.556813925447344,
target,soundFiles/1200Hz_-3dBFS_3s_44.1kHz.wav',t,2000,59,3,239,3,,,,,1214.068812900001,1215.040367200003,1215.0383760900029,1217.5392036000012,t,1,0.6128387999997358,,,,,,,,elpida_23_10_23(2),shielded_ultracortex,2023-10-23_16h52.03.492,Oddball_task,2022.2.5,59.556813925447344,
,,,,,,,,,,,,,,,,,,,,,1217.5571761000028,1220.5406949000026,1220.557774300003,e,16.95449809999991,elpida_23_10_23(2),shielded_ultracortex,2023-10-23_16h52.03.492,Oddball_task,2022.2.5,59.556813925447344,
