trial,file,corrAns,tone,trials.thisRepN,trials.thisTrialN,trials.thisN,trials.thisIndex,trials_2.thisRepN,trials_2.thisTrialN,trials_2.thisN,trials_2.thisIndex,instructions.started,key_resp_1.started,key_resp_1.keys,key_resp_1.rt,fixation.started,response.started,sound_1.started,response.keys,response.corr,feedback_text.started,response.stopped,response.rt,instructions_2.started,key_resp_2.started,key_resp_2.keys,key_resp_2.rt,sound_1.stopped,fixation.stopped,thank_you.started,exit_exp.started,thank_you.stopped,participant,session,date,expName,psychopyVersion,frameRate,
,,,,,,,,,,,,63.42883649999567,63.42883649999567,space,121.11736519999977,,,,,,,,,,,,,,,,,,elpida_19_10_23,gn_hugin4,2023-10-19_11h16.53.773,Oddball_task,2022.2.5,60.3120666932661,
standard,soundFiles/250Hz_44100Hz_16bit_05sec.wav',None,250,0,0,0,0,,,,,,,,,184.61168240000552,185.57935490000818,185.57799536999664,None,1,188.09539299999597,,,,,,,,,,,,elpida_19_10_23,gn_hugin4,2023-10-19_11h16.53.773,Oddball_task,2022.2.5,60.3120666932661,
standard,soundFiles/250Hz_44100Hz_16bit_05sec.wav',None,250,0,1,1,3,,,,,,,,,189.09520599999814,190.07818830000178,190.07809466999606,None,1,192.5947417999996,192.57814480000525,,,,,,,,,,,elpida_19_10_23,gn_hugin4,2023-10-19_11h16.53.773,Oddball_task,2022.2.5,60.3120666932661,
target,soundFiles/1200Hz_-3dBFS_3s_44.1kHz.wav',t,1200,0,2,2,4,,,,,,,,,193.59447530000762,194.57856779999565,194.57780877000187,t,1,197.0951761000033,197.078434199997,0.9285595999972429,,,,,,,,,,elpida_19_10_23,gn_hugin4,2023-10-19_11h16.53.773,Oddball_task,2022.2.5,60.3120666932661,
standard,soundFiles/250Hz_44100Hz_16bit_05sec.wav',None,250,0,3,3,1,,,,,,,,,198.09466360000079,199.07791469999938,199.07769736999762,None,1,201.59476659999928,201.57866070000455,,,,,,,,,,,elpida_19_10_23,gn_hugin4,2023-10-19_11h16.53.773,Oddball_task,2022.2.5,60.3120666932661,
standard,soundFiles/250Hz_44100Hz_16bit_05sec.wav',None,251,0,4,4,2,,,,,,,,,202.5950950999977,203.57825839999714,203.57841927000845,None,1,206.0946804999985,206.07836739999766,,,,,,,,,,,elpida_19_10_23,gn_hugin4,2023-10-19_11h16.53.773,Oddball_task,2022.2.5,60.3120666932661,
standard,soundFiles/250Hz_44100Hz_16bit_05sec.wav',None,250,1,0,5,0,,,,,,,,,207.09479109999666,208.07893360000162,208.07862246999866,None,1,210.59586400000262,210.57914830000664,,,,,,,,,,,elpida_19_10_23,gn_hugin4,2023-10-19_11h16.53.773,Oddball_task,2022.2.5,60.3120666932661,
target,soundFiles/1200Hz_-3dBFS_3s_44.1kHz.wav',t,1200,1,1,6,4,,,,,,,,,211.59544129999995,212.56199539999943,212.5625643700041,t,1,215.09532079999917,215.06224549999752,1.097194700007094,,,,,,,,,,elpida_19_10_23,gn_hugin4,2023-10-19_11h16.53.773,Oddball_task,2022.2.5,60.3120666932661,
standard,soundFiles/250Hz_44100Hz_16bit_05sec.wav',None,251,1,2,7,2,,,,,,,,,216.09498550000717,217.0784086000058,217.07769607000228,None,1,219.59472300000198,219.5784846000024,,,,,,,,,,,elpida_19_10_23,gn_hugin4,2023-10-19_11h16.53.773,Oddball_task,2022.2.5,60.3120666932661,
standard,soundFiles/250Hz_44100Hz_16bit_05sec.wav',None,250,1,3,8,3,,,,,,,,,220.59505630000785,221.57889140000043,221.5777587699995,None,1,224.09525569999823,224.07879400000093,,,,,,,,,,,elpida_19_10_23,gn_hugin4,2023-10-19_11h16.53.773,Oddball_task,2022.2.5,60.3120666932661,
standard,soundFiles/250Hz_44100Hz_16bit_05sec.wav',None,250,1,4,9,1,,,,,,,,,225.0955646000075,226.06191129999934,226.06241017000866,None,1,228.59469120000722,228.56231589999516,,,,,,,,,,,elpida_19_10_23,gn_hugin4,2023-10-19_11h16.53.773,Oddball_task,2022.2.5,60.3120666932661,
,,,,,,,,,,,,,,,,,,,,,,,,229.5953496000002,229.5953496000002,space,2.5837699999974575,,,,,,elpida_19_10_23,gn_hugin4,2023-10-19_11h16.53.773,Oddball_task,2022.2.5,60.3120666932661,
standard,soundFiles/250Hz_44100Hz_16bit_05sec.wav',None,250,,,,,0,0,0,0,,,,,232.22746599999664,233.21141469999566,233.21147567000298,None,1,,235.71204739999666,,,,,,,,,,,elpida_19_10_23,gn_hugin4,2023-10-19_11h16.53.773,Oddball_task,2022.2.5,60.3120666932661,
target,soundFiles/1200Hz_-3dBFS_3s_44.1kHz.wav',t,1200,,,,,0,1,1,4,,,,,235.72834090000833,236.71133720000216,236.7111864699982,t,1,,239.21181599999545,0.8278000999998767,,,,,,,,,,elpida_19_10_23,gn_hugin4,2023-10-19_11h16.53.773,Oddball_task,2022.2.5,60.3120666932661,
standard,soundFiles/250Hz_44100Hz_16bit_05sec.wav',None,251,,,,,0,2,2,2,,,,,239.2283330000064,240.21123040000384,240.2113823700056,None,1,,242.71140200000082,,,,,,,,,,,elpida_19_10_23,gn_hugin4,2023-10-19_11h16.53.773,Oddball_task,2022.2.5,60.3120666932661,
standard,soundFiles/250Hz_44100Hz_16bit_05sec.wav',None,250,,,,,0,3,3,1,,,,,242.72915800000192,243.71157010000024,243.71162087000266,None,1,,246.21168360000593,,,,,,,,,,,elpida_19_10_23,gn_hugin4,2023-10-19_11h16.53.773,Oddball_task,2022.2.5,60.3120666932661,
standard,soundFiles/250Hz_44100Hz_16bit_05sec.wav',None,250,,,,,0,4,4,3,,,,,246.22810550000577,247.21137479999743,247.21132447000127,None,1,,249.7115741000016,,,,,,,,,,,elpida_19_10_23,gn_hugin4,2023-10-19_11h16.53.773,Oddball_task,2022.2.5,60.3120666932661,
standard,soundFiles/250Hz_44100Hz_16bit_05sec.wav',None,250,,,,,1,0,5,1,,,,,249.7281057000073,250.69476199999917,250.69582526999875,None,1,,253.19509200000903,,,,,,,,,,,elpida_19_10_23,gn_hugin4,2023-10-19_11h16.53.773,Oddball_task,2022.2.5,60.3120666932661,
target,soundFiles/1200Hz_-3dBFS_3s_44.1kHz.wav',t,1200,,,,,1,1,6,4,,,,,253.2284645000036,254.21161110000685,254.21187947000726,t,1,,256.7115005000087,1.0156243000092218,,,,,,,,,,elpida_19_10_23,gn_hugin4,2023-10-19_11h16.53.773,Oddball_task,2022.2.5,60.3120666932661,
standard,soundFiles/250Hz_44100Hz_16bit_05sec.wav',None,251,,,,,1,2,7,2,,,,,256.728878599999,257.711893700005,257.7113943699951,None,1,,260.2117148999969,,,,,,,,,,,elpida_19_10_23,gn_hugin4,2023-10-19_11h16.53.773,Oddball_task,2022.2.5,60.3120666932661,
standard,soundFiles/250Hz_44100Hz_16bit_05sec.wav',None,250,,,,,1,3,8,3,,,,,260.22871280000254,261.2116698000027,261.21204017000855,None,1,,263.711355300009,,,,,,,,,,,elpida_19_10_23,gn_hugin4,2023-10-19_11h16.53.773,Oddball_task,2022.2.5,60.3120666932661,
standard,soundFiles/250Hz_44100Hz_16bit_05sec.wav',None,250,,,,,1,4,9,0,,,,,263.728780999998,264.7123595000012,264.71176097000716,None,1,,267.21133530000225,,,,,,,,,,,elpida_19_10_23,gn_hugin4,2023-10-19_11h16.53.773,Oddball_task,2022.2.5,60.3120666932661,
standard,soundFiles/250Hz_44100Hz_16bit_05sec.wav',None,250,,,,,2,0,10,3,,,,,267.22825430000375,268.21161389999907,268.21152957000595,None,1,,270.7122115999955,,,,,,,,,,,elpida_19_10_23,gn_hugin4,2023-10-19_11h16.53.773,Oddball_task,2022.2.5,60.3120666932661,
standard,soundFiles/250Hz_44100Hz_16bit_05sec.wav',None,250,,,,,2,1,11,1,,,,,270.7287914000044,271.7121976000053,271.712429170002,None,1,,274.2121400000033,,,,,,,,,,,elpida_19_10_23,gn_hugin4,2023-10-19_11h16.53.773,Oddball_task,2022.2.5,60.3120666932661,
target,soundFiles/1200Hz_-3dBFS_3s_44.1kHz.wav',t,1200,,,,,2,2,12,4,,,,,274.2290254999971,275.21164589999535,275.21171556999616,t,1,,277.7115422000061,0.863452799996594,,,,,,,,,,elpida_19_10_23,gn_hugin4,2023-10-19_11h16.53.773,Oddball_task,2022.2.5,60.3120666932661,
standard,soundFiles/250Hz_44100Hz_16bit_05sec.wav',None,250,,,,,2,3,13,0,,,,,277.7282603000058,278.71222359999956,278.7118776700081,None,1,,281.21247949999815,,,,,,,,,,,elpida_19_10_23,gn_hugin4,2023-10-19_11h16.53.773,Oddball_task,2022.2.5,60.3120666932661,
standard,soundFiles/250Hz_44100Hz_16bit_05sec.wav',None,251,,,,,2,4,14,2,,,,,281.2292187999992,282.1959358000022,282.1958981700009,None,1,,284.6961575000023,,,,,,283.1961006000056,,,,,elpida_19_10_23,gn_hugin4,2023-10-19_11h16.53.773,Oddball_task,2022.2.5,60.3120666932661,
standard,soundFiles/250Hz_44100Hz_16bit_05sec.wav',None,250,,,,,3,0,15,0,,,,,284.72950860000856,285.69601280000643,285.69618626999727,None,1,,288.1961793000082,,,,,,,,,,,elpida_19_10_23,gn_hugin4,2023-10-19_11h16.53.773,Oddball_task,2022.2.5,60.3120666932661,
standard,soundFiles/250Hz_44100Hz_16bit_05sec.wav',None,251,,,,,3,1,16,2,,,,,288.22919739999634,289.19583320000675,289.19582866999554,None,1,,291.69571749999886,,,,,,,,,,,elpida_19_10_23,gn_hugin4,2023-10-19_11h16.53.773,Oddball_task,2022.2.5,60.3120666932661,
standard,soundFiles/250Hz_44100Hz_16bit_05sec.wav',None,250,,,,,3,2,17,1,,,,,291.72952720000467,292.6956344000064,292.69625177000125,None,1,,295.1953031000012,,,,,,,,,,,elpida_19_10_23,gn_hugin4,2023-10-19_11h16.53.773,Oddball_task,2022.2.5,60.3120666932661,
target,soundFiles/1200Hz_-3dBFS_3s_44.1kHz.wav',t,1200,,,,,3,3,18,4,,,,,295.22884270000213,296.211653499995,296.21216787000594,t,1,,298.71162139999797,0.7920829999929992,,,,,,,,,,elpida_19_10_23,gn_hugin4,2023-10-19_11h16.53.773,Oddball_task,2022.2.5,60.3120666932661,
standard,soundFiles/250Hz_44100Hz_16bit_05sec.wav',None,250,,,,,3,4,19,3,,,,,298.7281848999992,299.71157640000456,299.71163706999505,None,1,,302.21238179999636,,,,,,,,,,,elpida_19_10_23,gn_hugin4,2023-10-19_11h16.53.773,Oddball_task,2022.2.5,60.3120666932661,
standard,soundFiles/250Hz_44100Hz_16bit_05sec.wav',None,250,,,,,4,0,20,3,,,,,302.22836589999497,303.21234240000194,303.2121575700003,None,1,,305.71233320000465,,,,,,,,,,,elpida_19_10_23,gn_hugin4,2023-10-19_11h16.53.773,Oddball_task,2022.2.5,60.3120666932661,
target,soundFiles/1200Hz_-3dBFS_3s_44.1kHz.wav',t,1200,,,,,4,1,21,4,,,,,305.73006370000076,306.71169359999476,306.7115405700024,t,1,,309.2123331000039,0.7640332000009948,,,,,,,,,,elpida_19_10_23,gn_hugin4,2023-10-19_11h16.53.773,Oddball_task,2022.2.5,60.3120666932661,
standard,soundFiles/250Hz_44100Hz_16bit_05sec.wav',None,250,,,,,4,2,22,0,,,,,309.2284681000019,310.2122165000037,310.21193417000177,None,1,,312.71233070000017,,,,,,311.2125253999984,,,,,elpida_19_10_23,gn_hugin4,2023-10-19_11h16.53.773,Oddball_task,2022.2.5,60.3120666932661,
standard,soundFiles/250Hz_44100Hz_16bit_05sec.wav',None,250,,,,,4,3,23,1,,,,,312.72894860000815,313.71221610000066,313.71206627000356,None,1,,316.2131053000048,,,,,,,,,,,elpida_19_10_23,gn_hugin4,2023-10-19_11h16.53.773,Oddball_task,2022.2.5,60.3120666932661,
standard,soundFiles/250Hz_44100Hz_16bit_05sec.wav',None,251,,,,,4,4,24,2,,,,,316.22938040000736,317.1960154999979,317.19684006999887,None,1,,319.6958122000069,,,,,,,,,,,elpida_19_10_23,gn_hugin4,2023-10-19_11h16.53.773,Oddball_task,2022.2.5,60.3120666932661,
standard,soundFiles/250Hz_44100Hz_16bit_05sec.wav',None,250,,,,,5,0,25,1,,,,,319.72944340000686,320.7120717000071,320.71164336999936,None,1,,323.21277980000013,,,,,,,,,,,elpida_19_10_23,gn_hugin4,2023-10-19_11h16.53.773,Oddball_task,2022.2.5,60.3120666932661,
target,soundFiles/1200Hz_-3dBFS_3s_44.1kHz.wav',t,1200,,,,,5,1,26,4,,,,,323.2297198000015,324.197510900005,324.1960823700065,t,1,,326.7123309000017,0.7334104999899864,,,,,325.1957581000024,,,,,elpida_19_10_23,gn_hugin4,2023-10-19_11h16.53.773,Oddball_task,2022.2.5,60.3120666932661,
standard,soundFiles/250Hz_44100Hz_16bit_05sec.wav',None,250,,,,,5,2,27,3,,,,,326.7297611999966,327.7125229999947,327.7116883700073,None,1,,330.2129789000028,,,,,,,,,,,elpida_19_10_23,gn_hugin4,2023-10-19_11h16.53.773,Oddball_task,2022.2.5,60.3120666932661,
standard,soundFiles/250Hz_44100Hz_16bit_05sec.wav',None,251,,,,,5,3,28,2,,,,,330.2291885000013,331.19639290000487,331.19601897000393,None,1,,333.6961996000027,,,,,,,,,,,elpida_19_10_23,gn_hugin4,2023-10-19_11h16.53.773,Oddball_task,2022.2.5,60.3120666932661,
standard,soundFiles/250Hz_44100Hz_16bit_05sec.wav',None,250,,,,,5,4,29,0,,,,,333.7291552999959,334.695220900001,334.6956335700088,None,1,,337.19547330000205,,,,,,,,,,,elpida_19_10_23,gn_hugin4,2023-10-19_11h16.53.773,Oddball_task,2022.2.5,60.3120666932661,
target,soundFiles/1200Hz_-3dBFS_3s_44.1kHz.wav',t,1200,,,,,6,0,30,4,,,,,337.228912999999,338.21197089999623,338.21226036999724,t,1,,340.71242979999806,0.742960800009314,,,,,,,,,,elpida_19_10_23,gn_hugin4,2023-10-19_11h16.53.773,Oddball_task,2022.2.5,60.3120666932661,
standard,soundFiles/250Hz_44100Hz_16bit_05sec.wav',None,250,,,,,6,1,31,3,,,,,340.72885840000527,341.6956661000004,341.6960378700023,None,1,,344.1975129000057,,,,,,,,,,,elpida_19_10_23,gn_hugin4,2023-10-19_11h16.53.773,Oddball_task,2022.2.5,60.3120666932661,
standard,soundFiles/250Hz_44100Hz_16bit_05sec.wav',None,250,,,,,6,2,32,0,,,,,344.2129797999951,345.1962879000057,345.1959661699948,None,1,,347.6963359000074,,,,,,346.1958039000019,347.71256820000417,,,,elpida_19_10_23,gn_hugin4,2023-10-19_11h16.53.773,Oddball_task,2022.2.5,60.3120666932661,
standard,soundFiles/250Hz_44100Hz_16bit_05sec.wav',None,250,,,,,6,3,33,1,,,,,347.71256820000417,348.7121993000037,348.7119248700037,None,1,,351.2123122000048,,,,,,349.71234630000254,351.2123122000048,,,,elpida_19_10_23,gn_hugin4,2023-10-19_11h16.53.773,Oddball_task,2022.2.5,60.3120666932661,
standard,soundFiles/250Hz_44100Hz_16bit_05sec.wav',None,251,,,,,6,4,34,2,,,,,351.2123122000048,352.19583159999456,352.1959790700057,None,1,,354.6953766000079,,,,,,,354.7119088000036,,,,elpida_19_10_23,gn_hugin4,2023-10-19_11h16.53.773,Oddball_task,2022.2.5,60.3120666932661,
standard,soundFiles/250Hz_44100Hz_16bit_05sec.wav',None,250,,,,,7,0,35,3,,,,,354.7119088000036,355.69589650000853,355.69608387000335,None,1,,358.19537919999857,,,,,,,358.2120067000069,,,,elpida_19_10_23,gn_hugin4,2023-10-19_11h16.53.773,Oddball_task,2022.2.5,60.3120666932661,
standard,soundFiles/250Hz_44100Hz_16bit_05sec.wav',None,251,,,,,7,1,36,2,,,,,358.2120067000069,359.19545440000365,359.19585247000214,None,1,,361.696437000006,,,,,,,361.7122110000055,,,,elpida_19_10_23,gn_hugin4,2023-10-19_11h16.53.773,Oddball_task,2022.2.5,60.3120666932661,
target,soundFiles/1200Hz_-3dBFS_3s_44.1kHz.wav',t,1200,,,,,7,2,37,4,,,,,361.7122110000055,362.7120874999964,362.71230907000427,t,1,,365.2126999000029,0.5958676000009291,,,,,,365.2126999000029,,,,elpida_19_10_23,gn_hugin4,2023-10-19_11h16.53.773,Oddball_task,2022.2.5,60.3120666932661,
standard,soundFiles/250Hz_44100Hz_16bit_05sec.wav',None,250,,,,,7,3,38,0,,,,,365.2126999000029,366.19589659999474,366.19624766999914,None,1,,368.69580139999744,,,,,,,368.71229969999695,,,,elpida_19_10_23,gn_hugin4,2023-10-19_11h16.53.773,Oddball_task,2022.2.5,60.3120666932661,
standard,soundFiles/250Hz_44100Hz_16bit_05sec.wav',None,250,,,,,7,4,39,1,,,,,368.71229969999695,369.71225169999525,369.71231277000334,None,1,,372.21216120000463,,,,,,370.7120903000032,372.21216120000463,,,,elpida_19_10_23,gn_hugin4,2023-10-19_11h16.53.773,Oddball_task,2022.2.5,60.3120666932661,
standard,soundFiles/250Hz_44100Hz_16bit_05sec.wav',None,251,,,,,8,0,40,2,,,,,372.21216120000463,373.2119546000031,373.2118909700075,None,1,,375.71213319999515,,,,,,,375.71213319999515,,,,elpida_19_10_23,gn_hugin4,2023-10-19_11h16.53.773,Oddball_task,2022.2.5,60.3120666932661,
standard,soundFiles/250Hz_44100Hz_16bit_05sec.wav',None,250,,,,,8,1,41,3,,,,,375.71213319999515,376.6955409000075,376.69586797000375,None,1,,379.1960528000054,,,,,,,379.21299480000744,,,,elpida_19_10_23,gn_hugin4,2023-10-19_11h16.53.773,Oddball_task,2022.2.5,60.3120666932661,
standard,soundFiles/250Hz_44100Hz_16bit_05sec.wav',None,250,,,,,8,2,42,1,,,,,379.21299480000744,380.19603859999916,380.1960642699996,None,1,,382.6955178000062,,,,,,,382.71224280000024,,,,elpida_19_10_23,gn_hugin4,2023-10-19_11h16.53.773,Oddball_task,2022.2.5,60.3120666932661,
standard,soundFiles/250Hz_44100Hz_16bit_05sec.wav',None,250,,,,,8,3,43,0,,,,,382.71224280000024,383.7120227999985,383.7120747699955,None,1,,,,,,,,,,,,,elpida_19_10_23,gn_hugin4,2023-10-19_11h16.53.773,Oddball_task,2022.2.5,60.3120666932661,
target,soundFiles/1200Hz_-3dBFS_3s_44.1kHz.wav',t,1200,,,,,8,4,44,4,,,,,386.21271839999827,387.1954601000034,387.1959660700086,t,1,,389.6962787999946,0.7601245999976527,,,,,,389.71302480000304,,,,elpida_19_10_23,gn_hugin4,2023-10-19_11h16.53.773,Oddball_task,2022.2.5,60.3120666932661,
standard,soundFiles/250Hz_44100Hz_16bit_05sec.wav',None,250,,,,,9,0,45,3,,,,,389.71302480000304,390.69668180000735,390.69712436999544,None,1,,393.19649899999786,,,,,,,393.21273339999607,,,,elpida_19_10_23,gn_hugin4,2023-10-19_11h16.53.773,Oddball_task,2022.2.5,60.3120666932661,
standard,soundFiles/250Hz_44100Hz_16bit_05sec.wav',None,251,,,,,9,1,46,2,,,,,393.21273339999607,394.19645489999675,394.19664886999817,None,1,,396.69803200000024,,,,,,,,,,,elpida_19_10_23,gn_hugin4,2023-10-19_11h16.53.773,Oddball_task,2022.2.5,60.3120666932661,
target,soundFiles/1200Hz_-3dBFS_3s_44.1kHz.wav',t,1200,,,,,9,2,47,4,,,,,396.7140542999987,397.69808309999644,397.69838996999897,t,1,,400.21218220000446,1.217543199993088,,,,,,,,,,elpida_19_10_23,gn_hugin4,2023-10-19_11h16.53.773,Oddball_task,2022.2.5,60.3120666932661,
standard,soundFiles/250Hz_44100Hz_16bit_05sec.wav',None,250,,,,,9,3,48,1,,,,,400.22975620000216,401.19610430000466,401.1963739700004,None,1,,403.69680230000813,,,,,,,,,,,elpida_19_10_23,gn_hugin4,2023-10-19_11h16.53.773,Oddball_task,2022.2.5,60.3120666932661,
standard,soundFiles/250Hz_44100Hz_16bit_05sec.wav',None,250,,,,,9,4,49,0,,,,,403.71264870000596,404.69625360000646,404.69559936999576,None,1,,407.1965113000042,,,,,,405.6963342999952,407.2126714000042,,,,elpida_19_10_23,gn_hugin4,2023-10-19_11h16.53.773,Oddball_task,2022.2.5,60.3120666932661,
target,soundFiles/1200Hz_-3dBFS_3s_44.1kHz.wav',t,1200,,,,,10,0,50,4,,,,,407.2126714000042,408.19662360000075,408.1962144700083,t,1,,410.69588210000074,0.7107339000067441,,,,,,410.7123130999971,,,,elpida_19_10_23,gn_hugin4,2023-10-19_11h16.53.773,Oddball_task,2022.2.5,60.3120666932661,
standard,soundFiles/250Hz_44100Hz_16bit_05sec.wav',None,250,,,,,10,1,51,1,,,,,410.7123130999971,411.69587150000734,411.69562266999856,None,1,,414.19592369999737,,,,,,,414.2123836999963,,,,elpida_19_10_23,gn_hugin4,2023-10-19_11h16.53.773,Oddball_task,2022.2.5,60.3120666932661,
standard,soundFiles/250Hz_44100Hz_16bit_05sec.wav',None,250,,,,,10,2,52,3,,,,,414.2123836999963,415.2122831000015,415.21230616999674,None,1,,417.7122662000038,,,,,,,417.7122662000038,,,,elpida_19_10_23,gn_hugin4,2023-10-19_11h16.53.773,Oddball_task,2022.2.5,60.3120666932661,
standard,soundFiles/250Hz_44100Hz_16bit_05sec.wav',None,250,,,,,10,3,53,0,,,,,417.7122662000038,418.6956271999952,418.69592787000875,None,1,,421.19553749999614,,,,,,,421.21224219999567,,,,elpida_19_10_23,gn_hugin4,2023-10-19_11h16.53.773,Oddball_task,2022.2.5,60.3120666932661,
standard,soundFiles/250Hz_44100Hz_16bit_05sec.wav',None,251,,,,,10,4,54,2,,,,,421.21224219999567,422.2127962000086,422.2124795700074,None,1,,424.7125153000088,,,,,,,424.7125153000088,,,,elpida_19_10_23,gn_hugin4,2023-10-19_11h16.53.773,Oddball_task,2022.2.5,60.3120666932661,
standard,soundFiles/250Hz_44100Hz_16bit_05sec.wav',None,251,,,,,11,0,55,2,,,,,424.7125153000088,425.6960379000084,425.6962959700031,None,1,,428.19641689999844,,,,,,426.69595480000135,428.2134331999987,,,,elpida_19_10_23,gn_hugin4,2023-10-19_11h16.53.773,Oddball_task,2022.2.5,60.3120666932661,
standard,soundFiles/250Hz_44100Hz_16bit_05sec.wav',None,250,,,,,11,1,56,3,,,,,428.2134331999987,429.1961805000028,429.1967850700021,None,1,,431.69562149999547,,,,,,,,,,,elpida_19_10_23,gn_hugin4,2023-10-19_11h16.53.773,Oddball_task,2022.2.5,60.3120666932661,
standard,soundFiles/250Hz_44100Hz_16bit_05sec.wav',None,250,,,,,11,2,57,0,,,,,431.7295773000078,432.71237170000677,432.71231327000714,None,1,,435.2124607000005,,,,,,433.7127690000052,,,,,elpida_19_10_23,gn_hugin4,2023-10-19_11h16.53.773,Oddball_task,2022.2.5,60.3120666932661,
standard,soundFiles/250Hz_44100Hz_16bit_05sec.wav',None,250,,,,,11,3,58,1,,,,,435.22924080000666,436.1959010999999,436.195853969999,None,1,,438.69648230000166,,,,,,,,,,,elpida_19_10_23,gn_hugin4,2023-10-19_11h16.53.773,Oddball_task,2022.2.5,60.3120666932661,
target,soundFiles/1200Hz_-3dBFS_3s_44.1kHz.wav',t,1200,,,,,11,4,59,4,,,,,438.7295691000036,439.6960972000088,439.6972873699997,t,1,,442.1960829000018,0.8923579999973299,,,,,,,,,,elpida_19_10_23,gn_hugin4,2023-10-19_11h16.53.773,Oddball_task,2022.2.5,60.3120666932661,
standard,soundFiles/250Hz_44100Hz_16bit_05sec.wav',None,250,,,,,12,0,60,1,,,,,442.22959889999765,443.19619450000755,443.19596537000325,None,1,,445.6965171000047,,,,,,,,,,,elpida_19_10_23,gn_hugin4,2023-10-19_11h16.53.773,Oddball_task,2022.2.5,60.3120666932661,
standard,soundFiles/250Hz_44100Hz_16bit_05sec.wav',None,250,,,,,12,1,61,3,,,,,445.7296123999986,446.695730300009,446.69586187000095,None,1,,449.19639169999573,,,,,,,,,,,elpida_19_10_23,gn_hugin4,2023-10-19_11h16.53.773,Oddball_task,2022.2.5,60.3120666932661,
standard,soundFiles/250Hz_44100Hz_16bit_05sec.wav',None,250,,,,,12,2,62,0,,,,,449.2297369000007,450.1962369999965,450.19682877000014,None,1,,452.69671709999966,,,,,,,,,,,elpida_19_10_23,gn_hugin4,2023-10-19_11h16.53.773,Oddball_task,2022.2.5,60.3120666932661,
target,soundFiles/1200Hz_-3dBFS_3s_44.1kHz.wav',t,1200,,,,,12,3,63,4,,,,,452.71329810000316,453.6977101999946,453.69662447000155,t,1,,456.212408300009,0.9464510999969207,,,,,,456.212408300009,,,,elpida_19_10_23,gn_hugin4,2023-10-19_11h16.53.773,Oddball_task,2022.2.5,60.3120666932661,
standard,soundFiles/250Hz_44100Hz_16bit_05sec.wav',None,251,,,,,12,4,64,2,,,,,456.212408300009,457.19561170000816,457.19572867000534,None,1,,459.69664880000346,,,,,,,,,,,elpida_19_10_23,gn_hugin4,2023-10-19_11h16.53.773,Oddball_task,2022.2.5,60.3120666932661,
standard,soundFiles/250Hz_44100Hz_16bit_05sec.wav',None,250,,,,,13,0,65,0,,,,,459.7130063000077,460.696285900005,460.696632170002,None,1,,463.19587920000777,,,,,,,463.2128471000033,,,,elpida_19_10_23,gn_hugin4,2023-10-19_11h16.53.773,Oddball_task,2022.2.5,60.3120666932661,
target,soundFiles/1200Hz_-3dBFS_3s_44.1kHz.wav',t,1200,,,,,13,1,66,4,,,,,463.2128471000033,464.19595009999466,464.19567697000457,t,1,,466.69733460000134,0.8639264999947045,,,,,,,,,,elpida_19_10_23,gn_hugin4,2023-10-19_11h16.53.773,Oddball_task,2022.2.5,60.3120666932661,
standard,soundFiles/250Hz_44100Hz_16bit_05sec.wav',None,250,,,,,13,2,67,1,,,,,466.71306059999915,467.6962019000057,467.6961697700026,None,1,,470.1961044000054,,,,,,,470.2128217999998,,,,elpida_19_10_23,gn_hugin4,2023-10-19_11h16.53.773,Oddball_task,2022.2.5,60.3120666932661,
standard,soundFiles/250Hz_44100Hz_16bit_05sec.wav',None,250,,,,,13,3,68,3,,,,,470.2128217999998,471.1966700000048,471.1969762700028,None,1,,473.69649709999794,,,,,,,473.7139218000084,,,,elpida_19_10_23,gn_hugin4,2023-10-19_11h16.53.773,Oddball_task,2022.2.5,60.3120666932661,
standard,soundFiles/250Hz_44100Hz_16bit_05sec.wav',None,251,,,,,13,4,69,2,,,,,473.7139218000084,474.6967267,474.6962274700054,None,1,,477.19675570000254,,,,,,,,,,,elpida_19_10_23,gn_hugin4,2023-10-19_11h16.53.773,Oddball_task,2022.2.5,60.3120666932661,
standard,soundFiles/250Hz_44100Hz_16bit_05sec.wav',None,250,,,,,14,0,70,0,,,,,477.2133371000091,478.19672730000457,478.1966703700018,None,1,,480.6968676999968,,,,,,,,,,,elpida_19_10_23,gn_hugin4,2023-10-19_11h16.53.773,Oddball_task,2022.2.5,60.3120666932661,
standard,soundFiles/250Hz_44100Hz_16bit_05sec.wav',None,250,,,,,14,1,71,1,,,,,480.71345150000707,481.6964475999994,481.69622957000684,None,1,,484.1964549999975,,,,,,,484.2138181000046,,,,elpida_19_10_23,gn_hugin4,2023-10-19_11h16.53.773,Oddball_task,2022.2.5,60.3120666932661,
standard,soundFiles/250Hz_44100Hz_16bit_05sec.wav',None,251,,,,,14,2,72,2,,,,,484.2138181000046,485.1969686999946,485.1965259700082,None,1,,487.6965485999972,,,,,,,,,,,elpida_19_10_23,gn_hugin4,2023-10-19_11h16.53.773,Oddball_task,2022.2.5,60.3120666932661,
target,soundFiles/1200Hz_-3dBFS_3s_44.1kHz.wav',t,1200,,,,,14,3,73,4,,,,,487.7127615000063,488.69620069999655,488.6959410700074,t,1,,491.19616010000755,0.7478696000034688,,,,,,491.21292910000193,,,,elpida_19_10_23,gn_hugin4,2023-10-19_11h16.53.773,Oddball_task,2022.2.5,60.3120666932661,
standard,soundFiles/250Hz_44100Hz_16bit_05sec.wav',None,250,,,,,14,4,74,3,,,,,491.21292910000193,492.1967524000065,492.1964237700013,None,1,,494.6959598999965,,,,,,,494.7131406999979,,,,elpida_19_10_23,gn_hugin4,2023-10-19_11h16.53.773,Oddball_task,2022.2.5,60.3120666932661,
standard,soundFiles/250Hz_44100Hz_16bit_05sec.wav',None,250,,,,,15,0,75,1,,,,,494.7131406999979,495.69612350000534,495.69651957000315,None,1,,498.19616049999604,,,,,,,498.2128418000066,,,,elpida_19_10_23,gn_hugin4,2023-10-19_11h16.53.773,Oddball_task,2022.2.5,60.3120666932661,
target,soundFiles/1200Hz_-3dBFS_3s_44.1kHz.wav',t,1200,,,,,15,1,76,4,,,,,498.2128418000066,499.1959444999957,499.1959676700062,t,1,,501.69685000000754,0.8419426000036765,,,,,,,,,,elpida_19_10_23,gn_hugin4,2023-10-19_11h16.53.773,Oddball_task,2022.2.5,60.3120666932661,
standard,soundFiles/250Hz_44100Hz_16bit_05sec.wav',None,250,,,,,15,2,77,0,,,,,501.7130194000056,502.6960070000059,502.6961267699953,None,1,,505.1959685000038,,,,,,,505.2131466999999,,,,elpida_19_10_23,gn_hugin4,2023-10-19_11h16.53.773,Oddball_task,2022.2.5,60.3120666932661,
standard,soundFiles/250Hz_44100Hz_16bit_05sec.wav',None,250,,,,,15,3,78,3,,,,,505.2131466999999,506.19642829999793,506.19589437000104,None,1,,508.6970724999992,,,,,,,,,,,elpida_19_10_23,gn_hugin4,2023-10-19_11h16.53.773,Oddball_task,2022.2.5,60.3120666932661,
standard,soundFiles/250Hz_44100Hz_16bit_05sec.wav',None,251,,,,,15,4,79,2,,,,,508.71328670000366,509.69687110000814,509.69784866999544,None,1,,512.1970220000076,,,,,,,,,,,elpida_19_10_23,gn_hugin4,2023-10-19_11h16.53.773,Oddball_task,2022.2.5,60.3120666932661,
standard,soundFiles/250Hz_44100Hz_16bit_05sec.wav',None,251,,,,,16,0,80,2,,,,,512.2139180999948,513.1966169000079,513.1970818700065,None,1,,515.6965055000037,,,,,,,,,,,elpida_19_10_23,gn_hugin4,2023-10-19_11h16.53.773,Oddball_task,2022.2.5,60.3120666932661,
target,soundFiles/1200Hz_-3dBFS_3s_44.1kHz.wav',t,1200,,,,,16,1,81,4,,,,,515.7131050000025,516.6965079000074,516.696563370002,t,1,,519.1969706999953,0.8921960000006948,,,,,,,,,,elpida_19_10_23,gn_hugin4,2023-10-19_11h16.53.773,Oddball_task,2022.2.5,60.3120666932661,
standard,soundFiles/250Hz_44100Hz_16bit_05sec.wav',None,250,,,,,16,2,82,3,,,,,519.2134461999958,520.1967958000023,520.1969795699988,None,1,,522.6968496000045,,,,,,,,,,,elpida_19_10_23,gn_hugin4,2023-10-19_11h16.53.773,Oddball_task,2022.2.5,60.3120666932661,
standard,soundFiles/250Hz_44100Hz_16bit_05sec.wav',None,250,,,,,16,3,83,1,,,,,522.7137441999948,523.6961682999972,523.69695297,None,1,,526.1965676999971,,,,,,,,,,,elpida_19_10_23,gn_hugin4,2023-10-19_11h16.53.773,Oddball_task,2022.2.5,60.3120666932661,
standard,soundFiles/250Hz_44100Hz_16bit_05sec.wav',None,250,,,,,16,4,84,0,,,,,526.2128926000005,527.1966475000081,527.1971878699987,None,1,,529.6965533000039,,,,,,528.1967239000078,,,,,elpida_19_10_23,gn_hugin4,2023-10-19_11h16.53.773,Oddball_task,2022.2.5,60.3120666932661,
standard,soundFiles/250Hz_44100Hz_16bit_05sec.wav',None,250,,,,,17,0,85,0,,,,,529.7133117000049,530.6961209000001,530.6960407699953,None,1,,533.1968105999986,,,,,,,,,,,elpida_19_10_23,gn_hugin4,2023-10-19_11h16.53.773,Oddball_task,2022.2.5,60.3120666932661,
target,soundFiles/1200Hz_-3dBFS_3s_44.1kHz.wav',t,1200,,,,,17,1,86,4,,,,,533.2132529000082,534.1961368000048,534.1961771700007,t,1,,536.6966167000064,0.672093599991058,,,,,,,,,,elpida_19_10_23,gn_hugin4,2023-10-19_11h16.53.773,Oddball_task,2022.2.5,60.3120666932661,
standard,soundFiles/250Hz_44100Hz_16bit_05sec.wav',None,250,,,,,17,2,87,1,,,,,536.7133349000069,537.6962870999996,537.696162570006,None,1,,540.1963104000024,,,,,,,540.212812400001,,,,elpida_19_10_23,gn_hugin4,2023-10-19_11h16.53.773,Oddball_task,2022.2.5,60.3120666932661,
standard,soundFiles/250Hz_44100Hz_16bit_05sec.wav',None,250,,,,,17,3,88,3,,,,,540.212812400001,541.1960249999975,541.1960370699962,None,1,,543.6966306999966,,,,,,,,,,,elpida_19_10_23,gn_hugin4,2023-10-19_11h16.53.773,Oddball_task,2022.2.5,60.3120666932661,
standard,soundFiles/250Hz_44100Hz_16bit_05sec.wav',None,251,,,,,17,4,89,2,,,,,543.7132657000038,544.6961754000076,544.696480070008,None,1,,547.1973263999971,,,,,,,,,,,elpida_19_10_23,gn_hugin4,2023-10-19_11h16.53.773,Oddball_task,2022.2.5,60.3120666932661,
standard,soundFiles/250Hz_44100Hz_16bit_05sec.wav',None,250,,,,,18,0,90,0,,,,,547.2132132999977,548.1966319000057,548.1966596700076,None,1,,550.6967681999959,,,,,,549.1968043000088,,,,,elpida_19_10_23,gn_hugin4,2023-10-19_11h16.53.773,Oddball_task,2022.2.5,60.3120666932661,
standard,soundFiles/250Hz_44100Hz_16bit_05sec.wav',None,250,,,,,18,1,91,3,,,,,550.713002000004,551.696093599996,551.6964366699976,None,1,,554.1968624000001,,,,,,,,,,,elpida_19_10_23,gn_hugin4,2023-10-19_11h16.53.773,Oddball_task,2022.2.5,60.3120666932661,
standard,soundFiles/250Hz_44100Hz_16bit_05sec.wav',None,251,,,,,18,2,92,2,,,,,554.212995000009,555.1965109000012,555.1965909700084,None,1,,557.6971943999961,,,,,,,,,,,elpida_19_10_23,gn_hugin4,2023-10-19_11h16.53.773,Oddball_task,2022.2.5,60.3120666932661,
standard,soundFiles/250Hz_44100Hz_16bit_05sec.wav',None,250,,,,,18,3,93,1,,,,,557.7130252000061,558.6967199000064,558.6967843699967,None,1,,561.1962816000014,,,,,,,561.2128014000045,,,,elpida_19_10_23,gn_hugin4,2023-10-19_11h16.53.773,Oddball_task,2022.2.5,60.3120666932661,
target,soundFiles/1200Hz_-3dBFS_3s_44.1kHz.wav',t,1200,,,,,18,4,94,4,,,,,561.2128014000045,562.1969832000032,562.1968828700046,t,1,,564.697073400006,0.9039574000053108,,,,,,,,,,elpida_19_10_23,gn_hugin4,2023-10-19_11h16.53.773,Oddball_task,2022.2.5,60.3120666932661,
standard,soundFiles/250Hz_44100Hz_16bit_05sec.wav',None,250,,,,,19,0,95,1,,,,,564.7131986000022,565.6964492999978,565.6966171700042,None,1,,568.196463100001,,,,,,,568.2138613999996,,,,elpida_19_10_23,gn_hugin4,2023-10-19_11h16.53.773,Oddball_task,2022.2.5,60.3120666932661,
standard,soundFiles/250Hz_44100Hz_16bit_05sec.wav',None,251,,,,,19,1,96,2,,,,,568.2138613999996,569.1983602999971,569.197465270001,None,1,,571.6972730999987,,,,,,,,,,,elpida_19_10_23,gn_hugin4,2023-10-19_11h16.53.773,Oddball_task,2022.2.5,60.3120666932661,
standard,soundFiles/250Hz_44100Hz_16bit_05sec.wav',None,250,,,,,19,2,97,3,,,,,571.7137782000063,572.6969461999979,572.6971529699949,None,1,,575.1967528999958,,,,,,,,,,,elpida_19_10_23,gn_hugin4,2023-10-19_11h16.53.773,Oddball_task,2022.2.5,60.3120666932661,
standard,soundFiles/250Hz_44100Hz_16bit_05sec.wav',None,250,,,,,19,3,98,0,,,,,575.2138533999969,576.1966748999985,576.196457469996,None,1,,578.6971602999984,,,,,,,,,,,elpida_19_10_23,gn_hugin4,2023-10-19_11h16.53.773,Oddball_task,2022.2.5,60.3120666932661,
target,soundFiles/1200Hz_-3dBFS_3s_44.1kHz.wav',t,1200,,,,,19,4,99,4,,,,,578.713623100004,579.6972812000022,579.6972756699979,t,1,,582.1970742999983,0.6128551000001607,,,,,,,,,,elpida_19_10_23,gn_hugin4,2023-10-19_11h16.53.773,Oddball_task,2022.2.5,60.3120666932661,
standard,soundFiles/250Hz_44100Hz_16bit_05sec.wav',None,250,,,,,20,0,100,1,,,,,582.2137132000062,583.1966077999969,583.1965618700051,None,1,,585.6967159000051,,,,,,,,,,,elpida_19_10_23,gn_hugin4,2023-10-19_11h16.53.773,Oddball_task,2022.2.5,60.3120666932661,
standard,soundFiles/250Hz_44100Hz_16bit_05sec.wav',None,250,,,,,20,1,101,3,,,,,585.7129370000039,586.6963029000035,586.6967950700055,None,1,,589.1968960999948,,,,,,,,,,,elpida_19_10_23,gn_hugin4,2023-10-19_11h16.53.773,Oddball_task,2022.2.5,60.3120666932661,
target,soundFiles/1200Hz_-3dBFS_3s_44.1kHz.wav',t,1200,,,,,20,2,102,4,,,,,589.2130542999948,590.197153000001,590.1968576700019,t,1,,592.6969190000091,0.8712890000024345,,,,,,,,,,elpida_19_10_23,gn_hugin4,2023-10-19_11h16.53.773,Oddball_task,2022.2.5,60.3120666932661,
standard,soundFiles/250Hz_44100Hz_16bit_05sec.wav',None,250,,,,,20,3,103,0,,,,,592.7144421999983,593.696620200004,593.696486269997,None,1,,596.196852100009,,,,,,,,,,,elpida_19_10_23,gn_hugin4,2023-10-19_11h16.53.773,Oddball_task,2022.2.5,60.3120666932661,
standard,soundFiles/250Hz_44100Hz_16bit_05sec.wav',None,251,,,,,20,4,104,2,,,,,596.2133610000019,597.1970529999962,597.197496770008,None,1,,599.6965732999961,,,,,,,,,,,elpida_19_10_23,gn_hugin4,2023-10-19_11h16.53.773,Oddball_task,2022.2.5,60.3120666932661,
standard,soundFiles/250Hz_44100Hz_16bit_05sec.wav',None,250,,,,,21,0,105,0,,,,,599.7132658000046,600.697113000002,600.6963029699982,None,1,,603.1972269999969,,,,,,,,,,,elpida_19_10_23,gn_hugin4,2023-10-19_11h16.53.773,Oddball_task,2022.2.5,60.3120666932661,
standard,soundFiles/250Hz_44100Hz_16bit_05sec.wav',None,250,,,,,21,1,106,3,,,,,603.2135619000037,604.1966837000073,604.1965579700045,None,1,,606.6972567000048,,,,,,,,,,,elpida_19_10_23,gn_hugin4,2023-10-19_11h16.53.773,Oddball_task,2022.2.5,60.3120666932661,
target,soundFiles/1200Hz_-3dBFS_3s_44.1kHz.wav',t,1200,,,,,21,2,107,4,,,,,606.7145635000052,607.6966395000054,607.6969504699955,t,1,,610.1966557999986,0.7884953000029782,,,,,,,,,,elpida_19_10_23,gn_hugin4,2023-10-19_11h16.53.773,Oddball_task,2022.2.5,60.3120666932661,
standard,soundFiles/250Hz_44100Hz_16bit_05sec.wav',None,251,,,,,21,3,108,2,,,,,610.2137887999997,611.1968513000029,611.1969686700031,None,1,,613.6974025999953,,,,,,,,,,,elpida_19_10_23,gn_hugin4,2023-10-19_11h16.53.773,Oddball_task,2022.2.5,60.3120666932661,
standard,soundFiles/250Hz_44100Hz_16bit_05sec.wav',None,250,,,,,21,4,109,1,,,,,613.713946200005,614.6969519999984,614.6969553700037,None,1,,617.1972749999986,,,,,,,,,,,elpida_19_10_23,gn_hugin4,2023-10-19_11h16.53.773,Oddball_task,2022.2.5,60.3120666932661,
standard,soundFiles/250Hz_44100Hz_16bit_05sec.wav',None,251,,,,,22,0,110,2,,,,,617.2137648000062,618.1966222000046,618.1967850700021,None,1,,620.6966501999996,,,,,,,,,,,elpida_19_10_23,gn_hugin4,2023-10-19_11h16.53.773,Oddball_task,2022.2.5,60.3120666932661,
standard,soundFiles/250Hz_44100Hz_16bit_05sec.wav',None,250,,,,,22,1,111,0,,,,,620.7138536999992,621.6972356000042,621.6971772700053,None,1,,624.1966821999958,,,,,,,,,,,elpida_19_10_23,gn_hugin4,2023-10-19_11h16.53.773,Oddball_task,2022.2.5,60.3120666932661,
target,soundFiles/1200Hz_-3dBFS_3s_44.1kHz.wav',t,1200,,,,,22,2,112,4,,,,,624.2135815000074,625.1970661999949,625.1967597699986,t,1,,627.6970156000025,0.8239001999900211,,,,,,,,,,elpida_19_10_23,gn_hugin4,2023-10-19_11h16.53.773,Oddball_task,2022.2.5,60.3120666932661,
standard,soundFiles/250Hz_44100Hz_16bit_05sec.wav',None,250,,,,,22,3,113,3,,,,,627.7142984999955,628.697788599995,628.6978536700044,None,1,,631.1972133999952,,,,,,629.6973429000063,,,,,elpida_19_10_23,gn_hugin4,2023-10-19_11h16.53.773,Oddball_task,2022.2.5,60.3120666932661,
standard,soundFiles/250Hz_44100Hz_16bit_05sec.wav',None,250,,,,,22,4,114,1,,,,,631.2138329000009,632.1977503000089,632.197208669997,None,1,,634.6973689000006,,,,,,,,,,,elpida_19_10_23,gn_hugin4,2023-10-19_11h16.53.773,Oddball_task,2022.2.5,60.3120666932661,
standard,soundFiles/250Hz_44100Hz_16bit_05sec.wav',None,250,,,,,23,0,115,3,,,,,634.7137270999956,635.6979124000063,635.6966438700038,None,1,,638.1973856999975,,,,,,,,,,,elpida_19_10_23,gn_hugin4,2023-10-19_11h16.53.773,Oddball_task,2022.2.5,60.3120666932661,
standard,soundFiles/250Hz_44100Hz_16bit_05sec.wav',None,250,,,,,23,1,116,0,,,,,638.2138944000035,639.1966481999989,639.1969130700018,None,1,,641.6975898999954,,,,,,,,,,,elpida_19_10_23,gn_hugin4,2023-10-19_11h16.53.773,Oddball_task,2022.2.5,60.3120666932661,
standard,soundFiles/250Hz_44100Hz_16bit_05sec.wav',None,250,,,,,23,2,117,1,,,,,641.7142352000083,642.6971783000045,642.6968909700081,None,1,,645.1970306000003,,,,,,,,,,,elpida_19_10_23,gn_hugin4,2023-10-19_11h16.53.773,Oddball_task,2022.2.5,60.3120666932661,
standard,soundFiles/250Hz_44100Hz_16bit_05sec.wav',None,251,,,,,23,3,118,2,,,,,645.2135011000064,646.1967173000012,646.1965598700044,None,1,,648.6970508000086,,,,,,,,,,,elpida_19_10_23,gn_hugin4,2023-10-19_11h16.53.773,Oddball_task,2022.2.5,60.3120666932661,
target,soundFiles/1200Hz_-3dBFS_3s_44.1kHz.wav',t,1200,,,,,23,4,119,4,,,,,648.7137363000074,649.6966132999951,649.6970734700008,t,1,,652.1969357000053,0.9576237000001129,,,,,,,,,,elpida_19_10_23,gn_hugin4,2023-10-19_11h16.53.773,Oddball_task,2022.2.5,60.3120666932661,
target,soundFiles/1200Hz_-3dBFS_3s_44.1kHz.wav',t,1200,,,,,24,0,120,4,,,,,652.2138443000003,653.1968257999979,653.1971071699954,t,1,,655.6969905000005,1.0482267000043066,,,,,,,,,,elpida_19_10_23,gn_hugin4,2023-10-19_11h16.53.773,Oddball_task,2022.2.5,60.3120666932661,
standard,soundFiles/250Hz_44100Hz_16bit_05sec.wav',None,250,,,,,24,1,121,3,,,,,655.7145331000065,656.6973747000011,656.6973888700013,None,1,,659.1974359000014,,,,,,,,,,,elpida_19_10_23,gn_hugin4,2023-10-19_11h16.53.773,Oddball_task,2022.2.5,60.3120666932661,
standard,soundFiles/250Hz_44100Hz_16bit_05sec.wav',None,250,,,,,24,2,122,1,,,,,659.2146295999992,660.1974961000087,660.1976326699951,None,1,,662.6970847000048,,,,,,,,,,,elpida_19_10_23,gn_hugin4,2023-10-19_11h16.53.773,Oddball_task,2022.2.5,60.3120666932661,
standard,soundFiles/250Hz_44100Hz_16bit_05sec.wav',None,251,,,,,24,3,123,2,,,,,662.7138303999964,663.6975940999982,663.6977971699962,None,1,,666.1974483000085,,,,,,,,,,,elpida_19_10_23,gn_hugin4,2023-10-19_11h16.53.773,Oddball_task,2022.2.5,60.3120666932661,
standard,soundFiles/250Hz_44100Hz_16bit_05sec.wav',None,250,,,,,24,4,124,0,,,,,666.2138823999994,667.1970258000074,667.1966532700026,None,1,,669.697284599999,,,,,,,,,,,elpida_19_10_23,gn_hugin4,2023-10-19_11h16.53.773,Oddball_task,2022.2.5,60.3120666932661,
target,soundFiles/1200Hz_-3dBFS_3s_44.1kHz.wav',t,1200,,,,,25,0,125,4,,,,,669.7135070000077,670.697874999998,670.6971170699981,t,1,,673.1969147000054,1.0428137999988394,,,,,,,,,,elpida_19_10_23,gn_hugin4,2023-10-19_11h16.53.773,Oddball_task,2022.2.5,60.3120666932661,
standard,soundFiles/250Hz_44100Hz_16bit_05sec.wav',None,250,,,,,25,1,126,3,,,,,673.2138475999964,674.1974507999985,674.1972852699982,None,1,,676.6972974999953,,,,,,,,,,,elpida_19_10_23,gn_hugin4,2023-10-19_11h16.53.773,Oddball_task,2022.2.5,60.3120666932661,
standard,soundFiles/250Hz_44100Hz_16bit_05sec.wav',None,250,,,,,25,2,127,1,,,,,676.7140539999964,677.6969092000072,677.6981212700048,None,1,,680.1980323000025,,,,,,,,,,,elpida_19_10_23,gn_hugin4,2023-10-19_11h16.53.773,Oddball_task,2022.2.5,60.3120666932661,
standard,soundFiles/250Hz_44100Hz_16bit_05sec.wav',None,250,,,,,25,3,128,0,,,,,680.2142327000038,681.1969467000017,681.1970264700067,None,1,,683.6974859000038,,,,,,,,,,,elpida_19_10_23,gn_hugin4,2023-10-19_11h16.53.773,Oddball_task,2022.2.5,60.3120666932661,
standard,soundFiles/250Hz_44100Hz_16bit_05sec.wav',None,251,,,,,25,4,129,2,,,,,683.7146483999968,684.6975536999962,684.6973983700009,None,1,,687.1977066999971,,,,,,,,,,,elpida_19_10_23,gn_hugin4,2023-10-19_11h16.53.773,Oddball_task,2022.2.5,60.3120666932661,
standard,soundFiles/250Hz_44100Hz_16bit_05sec.wav',None,251,,,,,26,0,130,2,,,,,687.215111700003,688.1968682000006,688.196752570002,None,1,,690.6975852000032,,,,,,,,,,,elpida_19_10_23,gn_hugin4,2023-10-19_11h16.53.773,Oddball_task,2022.2.5,60.3120666932661,
target,soundFiles/1200Hz_-3dBFS_3s_44.1kHz.wav',t,1200,,,,,26,1,131,4,,,,,690.7149413000006,691.6979399999982,691.6977386700019,t,1,,694.197582000008,0.8510757999902125,,,,,,,,,,elpida_19_10_23,gn_hugin4,2023-10-19_11h16.53.773,Oddball_task,2022.2.5,60.3120666932661,
standard,soundFiles/250Hz_44100Hz_16bit_05sec.wav',None,250,,,,,26,2,132,3,,,,,694.2145533000003,695.1983183999982,695.1971671700012,None,1,,697.6976103000052,,,,,,,,,,,elpida_19_10_23,gn_hugin4,2023-10-19_11h16.53.773,Oddball_task,2022.2.5,60.3120666932661,
standard,soundFiles/250Hz_44100Hz_16bit_05sec.wav',None,250,,,,,26,3,133,1,,,,,697.7142916000012,698.6974394999997,698.6978246700019,None,1,,701.1982146000082,,,,,,,,,,,elpida_19_10_23,gn_hugin4,2023-10-19_11h16.53.773,Oddball_task,2022.2.5,60.3120666932661,
standard,soundFiles/250Hz_44100Hz_16bit_05sec.wav',None,250,,,,,26,4,134,0,,,,,701.214618500002,702.1969701000053,702.1972401700041,None,1,,704.6981363000086,,,,,,,,,,,elpida_19_10_23,gn_hugin4,2023-10-19_11h16.53.773,Oddball_task,2022.2.5,60.3120666932661,
standard,soundFiles/250Hz_44100Hz_16bit_05sec.wav',None,250,,,,,27,0,135,1,,,,,704.7149637999973,705.6979802999995,705.6974118700018,None,1,,708.1976472999959,,,,,,,,,,,elpida_19_10_23,gn_hugin4,2023-10-19_11h16.53.773,Oddball_task,2022.2.5,60.3120666932661,
standard,soundFiles/250Hz_44100Hz_16bit_05sec.wav',None,250,,,,,27,1,136,0,,,,,708.2143170000054,709.1979651000001,709.1969843700062,None,1,,711.6973820999992,,,,,,,,,,,elpida_19_10_23,gn_hugin4,2023-10-19_11h16.53.773,Oddball_task,2022.2.5,60.3120666932661,
standard,soundFiles/250Hz_44100Hz_16bit_05sec.wav',None,251,,,,,27,2,137,2,,,,,711.7137760000041,712.6976624999952,712.6976946700015,None,1,,715.1973173000006,,,,,,,,,,,elpida_19_10_23,gn_hugin4,2023-10-19_11h16.53.773,Oddball_task,2022.2.5,60.3120666932661,
standard,soundFiles/250Hz_44100Hz_16bit_05sec.wav',None,250,,,,,27,3,138,3,,,,,715.2140783000068,716.1978539999982,716.1970873700047,None,1,,718.6973421000002,,,,,,,,,,,elpida_19_10_23,gn_hugin4,2023-10-19_11h16.53.773,Oddball_task,2022.2.5,60.3120666932661,
target,soundFiles/1200Hz_-3dBFS_3s_44.1kHz.wav',t,1200,,,,,27,4,139,4,,,,,718.7141683000082,719.6973412000079,719.6974012700084,t,1,,722.1977827000082,0.813124099993729,,,,,,,,,,elpida_19_10_23,gn_hugin4,2023-10-19_11h16.53.773,Oddball_task,2022.2.5,60.3120666932661,
standard,soundFiles/250Hz_44100Hz_16bit_05sec.wav',None,250,,,,,28,0,140,3,,,,,722.214764400007,723.1979087000072,723.1977501700021,None,1,,725.6973104000062,,,,,,,,,,,elpida_19_10_23,gn_hugin4,2023-10-19_11h16.53.773,Oddball_task,2022.2.5,60.3120666932661,
target,soundFiles/1200Hz_-3dBFS_3s_44.1kHz.wav',t,1200,,,,,28,1,141,4,,,,,725.7147557999997,726.6988906000042,726.6994221700006,t,1,,729.1974012999999,0.7789903999946546,,,,,,,,,,elpida_19_10_23,gn_hugin4,2023-10-19_11h16.53.773,Oddball_task,2022.2.5,60.3120666932661,
standard,soundFiles/250Hz_44100Hz_16bit_05sec.wav',None,250,,,,,28,2,142,1,,,,,729.2138898999983,730.1978864999983,730.197368470006,None,1,,732.697642900006,,,,,,,,,,,elpida_19_10_23,gn_hugin4,2023-10-19_11h16.53.773,Oddball_task,2022.2.5,60.3120666932661,
standard,soundFiles/250Hz_44100Hz_16bit_05sec.wav',None,250,,,,,28,3,143,0,,,,,732.7149044999969,733.6981310999981,733.6984798699996,None,1,,,,,,,,,,,,,elpida_19_10_23,gn_hugin4,2023-10-19_11h16.53.773,Oddball_task,2022.2.5,60.3120666932661,
standard,soundFiles/250Hz_44100Hz_16bit_05sec.wav',None,251,,,,,28,4,144,2,,,,,736.213917400004,737.1973072999972,737.1971197700041,None,1,,739.6974915000028,,,,,,,,,,,elpida_19_10_23,gn_hugin4,2023-10-19_11h16.53.773,Oddball_task,2022.2.5,60.3120666932661,
target,soundFiles/1200Hz_-3dBFS_3s_44.1kHz.wav',t,1200,,,,,29,0,145,4,,,,,739.7140884999972,740.6973627999978,740.6978696699953,t,1,,743.1984605000034,0.8925541000062367,,,,,,,,,,elpida_19_10_23,gn_hugin4,2023-10-19_11h16.53.773,Oddball_task,2022.2.5,60.3120666932661,
standard,soundFiles/250Hz_44100Hz_16bit_05sec.wav',None,250,,,,,29,1,146,0,,,,,743.214668200002,744.1971112000028,744.1971269700007,None,1,,746.6977941000077,,,,,,,,,,,elpida_19_10_23,gn_hugin4,2023-10-19_11h16.53.773,Oddball_task,2022.2.5,60.3120666932661,
standard,soundFiles/250Hz_44100Hz_16bit_05sec.wav',None,251,,,,,29,2,147,2,,,,,746.7145449000091,747.6981728999963,747.6973794700025,None,1,,750.1979829000047,,,,,,,,,,,elpida_19_10_23,gn_hugin4,2023-10-19_11h16.53.773,Oddball_task,2022.2.5,60.3120666932661,
standard,soundFiles/250Hz_44100Hz_16bit_05sec.wav',None,250,,,,,29,3,148,3,,,,,750.2145140000066,751.1978958999971,751.1980244699953,None,1,,753.6987975000084,,,,,,752.1980256999959,,,,,elpida_19_10_23,gn_hugin4,2023-10-19_11h16.53.773,Oddball_task,2022.2.5,60.3120666932661,
standard,soundFiles/250Hz_44100Hz_16bit_05sec.wav',None,250,,,,,29,4,149,1,,,,,753.7149529000017,754.6977944999962,754.6977617700031,None,1,,757.1972015000065,,,,,,,,,,,elpida_19_10_23,gn_hugin4,2023-10-19_11h16.53.773,Oddball_task,2022.2.5,60.3120666932661,
standard,soundFiles/250Hz_44100Hz_16bit_05sec.wav',None,250,,,,,30,0,150,0,,,,,757.2144798000081,758.1974536000052,758.197629369999,None,1,,760.6980978000065,,,,,,,,,,,elpida_19_10_23,gn_hugin4,2023-10-19_11h16.53.773,Oddball_task,2022.2.5,60.3120666932661,
standard,soundFiles/250Hz_44100Hz_16bit_05sec.wav',None,251,,,,,30,1,151,2,,,,,760.7151120000053,761.6977775999985,761.6971876699972,None,1,,764.1987689000089,,,,,,,,,,,elpida_19_10_23,gn_hugin4,2023-10-19_11h16.53.773,Oddball_task,2022.2.5,60.3120666932661,
target,soundFiles/1200Hz_-3dBFS_3s_44.1kHz.wav',t,1200,,,,,30,2,152,4,,,,,764.2147723000089,765.1979890000075,765.1978928699973,t,1,,767.6989946999965,0.6391177000041353,,,,,,,,,,elpida_19_10_23,gn_hugin4,2023-10-19_11h16.53.773,Oddball_task,2022.2.5,60.3120666932661,
standard,soundFiles/250Hz_44100Hz_16bit_05sec.wav',None,250,,,,,30,3,153,3,,,,,767.7145954000007,768.6986063000077,768.6980084700044,None,1,,771.1979854999954,,,,,,,,,,,elpida_19_10_23,gn_hugin4,2023-10-19_11h16.53.773,Oddball_task,2022.2.5,60.3120666932661,
standard,soundFiles/250Hz_44100Hz_16bit_05sec.wav',None,250,,,,,30,4,154,1,,,,,771.2146598999971,772.1984293999994,772.1977610699978,None,1,,774.6993965000001,,,,,,773.1984853000031,,,,,elpida_19_10_23,gn_hugin4,2023-10-19_11h16.53.773,Oddball_task,2022.2.5,60.3120666932661,
standard,soundFiles/250Hz_44100Hz_16bit_05sec.wav',None,250,,,,,31,0,155,3,,,,,774.714626800007,775.6975047000014,775.6977297700068,None,1,,778.1973455999978,,,,,,,,,,,elpida_19_10_23,gn_hugin4,2023-10-19_11h16.53.773,Oddball_task,2022.2.5,60.3120666932661,
standard,soundFiles/250Hz_44100Hz_16bit_05sec.wav',None,251,,,,,31,1,156,2,,,,,778.2141144000052,779.1975024999992,779.1975359700009,None,1,,781.6973353000067,,,,,,,,,,,elpida_19_10_23,gn_hugin4,2023-10-19_11h16.53.773,Oddball_task,2022.2.5,60.3120666932661,
standard,soundFiles/250Hz_44100Hz_16bit_05sec.wav',None,250,,,,,31,2,157,1,,,,,781.7147774000041,782.6979354000068,782.6978450699971,None,1,,785.1985270000005,,,,,,,,,,,elpida_19_10_23,gn_hugin4,2023-10-19_11h16.53.773,Oddball_task,2022.2.5,60.3120666932661,
standard,soundFiles/250Hz_44100Hz_16bit_05sec.wav',None,250,,,,,31,3,158,0,,,,,785.2148701999977,786.1977754999971,786.1981570700009,None,1,,788.6985300000088,,,,,,,,,,,elpida_19_10_23,gn_hugin4,2023-10-19_11h16.53.773,Oddball_task,2022.2.5,60.3120666932661,
target,soundFiles/1200Hz_-3dBFS_3s_44.1kHz.wav',t,1200,,,,,31,4,159,4,,,,,788.7147330000007,789.6986217999947,789.6981341700011,t,1,,792.1979991999979,0.9069842999888351,,,,,,,,,,elpida_19_10_23,gn_hugin4,2023-10-19_11h16.53.773,Oddball_task,2022.2.5,60.3120666932661,
target,soundFiles/1200Hz_-3dBFS_3s_44.1kHz.wav',t,1200,,,,,32,0,160,4,,,,,792.2143655999971,793.1977412999986,793.1976857700065,t,1,,795.6982546000072,1.127964699990116,,,,,,,,,,elpida_19_10_23,gn_hugin4,2023-10-19_11h16.53.773,Oddball_task,2022.2.5,60.3120666932661,
standard,soundFiles/250Hz_44100Hz_16bit_05sec.wav',None,250,,,,,32,1,161,0,,,,,795.7148373999953,796.6973204999958,796.6973356700037,None,1,,799.1986789000075,,,,,,,,,,,elpida_19_10_23,gn_hugin4,2023-10-19_11h16.53.773,Oddball_task,2022.2.5,60.3120666932661,
standard,soundFiles/250Hz_44100Hz_16bit_05sec.wav',None,251,,,,,32,2,162,2,,,,,799.215518099998,800.1980306000041,800.197374070005,None,1,,802.6981682000041,,,,,,,,,,,elpida_19_10_23,gn_hugin4,2023-10-19_11h16.53.773,Oddball_task,2022.2.5,60.3120666932661,
standard,soundFiles/250Hz_44100Hz_16bit_05sec.wav',None,250,,,,,32,3,163,3,,,,,802.7147675000015,803.6974673000077,803.6974738700083,None,1,,806.197777399997,,,,,,,,,,,elpida_19_10_23,gn_hugin4,2023-10-19_11h16.53.773,Oddball_task,2022.2.5,60.3120666932661,
standard,soundFiles/250Hz_44100Hz_16bit_05sec.wav',None,250,,,,,32,4,164,1,,,,,806.2144178000017,807.1983651000046,807.1982820700068,None,1,,809.6981885999994,,,,,,,,,,,elpida_19_10_23,gn_hugin4,2023-10-19_11h16.53.773,Oddball_task,2022.2.5,60.3120666932661,
standard,soundFiles/250Hz_44100Hz_16bit_05sec.wav',None,250,,,,,33,0,165,1,,,,,809.7152694999968,810.6983306000038,810.6984765700035,None,1,,813.1981779000052,,,,,,811.6982648999983,,,,,elpida_19_10_23,gn_hugin4,2023-10-19_11h16.53.773,Oddball_task,2022.2.5,60.3120666932661,
standard,soundFiles/250Hz_44100Hz_16bit_05sec.wav',None,251,,,,,33,1,166,2,,,,,813.2150935999962,814.198679100009,814.1976490700035,None,1,,816.6982954999985,,,,,,,,,,,elpida_19_10_23,gn_hugin4,2023-10-19_11h16.53.773,Oddball_task,2022.2.5,60.3120666932661,
target,soundFiles/1200Hz_-3dBFS_3s_44.1kHz.wav',t,1200,,,,,33,2,167,4,,,,,816.7148778999981,817.6974814999994,817.6976553700079,t,1,,820.198484499997,0.9166415999934543,,,,,,,,,,elpida_19_10_23,gn_hugin4,2023-10-19_11h16.53.773,Oddball_task,2022.2.5,60.3120666932661,
standard,soundFiles/250Hz_44100Hz_16bit_05sec.wav',None,250,,,,,33,3,168,3,,,,,820.2144602000044,821.1978215999989,821.1977696700051,None,1,,823.6978758000041,,,,,,,,,,,elpida_19_10_23,gn_hugin4,2023-10-19_11h16.53.773,Oddball_task,2022.2.5,60.3120666932661,
standard,soundFiles/250Hz_44100Hz_16bit_05sec.wav',None,250,,,,,33,4,169,0,,,,,823.7142759999988,824.6976596000022,824.6978728700051,None,1,,827.1977960000077,,,,,,,,,,,elpida_19_10_23,gn_hugin4,2023-10-19_11h16.53.773,Oddball_task,2022.2.5,60.3120666932661,
standard,soundFiles/250Hz_44100Hz_16bit_05sec.wav',None,250,,,,,34,0,170,0,,,,,827.2140272999968,828.1981110000052,828.198216069999,None,1,,830.6977094000031,,,,,,,,,,,elpida_19_10_23,gn_hugin4,2023-10-19_11h16.53.773,Oddball_task,2022.2.5,60.3120666932661,
target,soundFiles/1200Hz_-3dBFS_3s_44.1kHz.wav',t,1200,,,,,34,1,171,4,,,,,830.7146560999972,831.6981998999981,831.6980873700086,t,1,,834.198386700009,0.8278682999953162,,,,,,,,,,elpida_19_10_23,gn_hugin4,2023-10-19_11h16.53.773,Oddball_task,2022.2.5,60.3120666932661,
standard,soundFiles/250Hz_44100Hz_16bit_05sec.wav',None,250,,,,,34,2,172,1,,,,,834.2147874000075,835.1992237999948,835.1973503699992,None,1,,,,,,,,,,,,,elpida_19_10_23,gn_hugin4,2023-10-19_11h16.53.773,Oddball_task,2022.2.5,60.3120666932661,
standard,soundFiles/250Hz_44100Hz_16bit_05sec.wav',None,251,,,,,34,3,173,2,,,,,837.7150181000034,838.6976479000004,838.6981568699994,None,1,,841.1980340000009,,,,,,,,,,,elpida_19_10_23,gn_hugin4,2023-10-19_11h16.53.773,Oddball_task,2022.2.5,60.3120666932661,
standard,soundFiles/250Hz_44100Hz_16bit_05sec.wav',None,250,,,,,34,4,174,3,,,,,841.2151810000069,842.1987227000063,842.1983606700087,None,1,,844.6986427999946,,,,,,,,,,,elpida_19_10_23,gn_hugin4,2023-10-19_11h16.53.773,Oddball_task,2022.2.5,60.3120666932661,
standard,soundFiles/250Hz_44100Hz_16bit_05sec.wav',None,250,,,,,35,0,175,3,,,,,844.7153012000053,845.6980364000046,845.6981956700038,None,1,,848.199799199996,,,,,,,,,,,elpida_19_10_23,gn_hugin4,2023-10-19_11h16.53.773,Oddball_task,2022.2.5,60.3120666932661,
standard,soundFiles/250Hz_44100Hz_16bit_05sec.wav',None,250,,,,,35,1,176,0,,,,,848.215048099999,849.1987919999956,849.1994504699978,None,1,,851.6985578000022,,,,,,,,,,,elpida_19_10_23,gn_hugin4,2023-10-19_11h16.53.773,Oddball_task,2022.2.5,60.3120666932661,
target,soundFiles/1200Hz_-3dBFS_3s_44.1kHz.wav',t,1200,,,,,35,2,177,4,,,,,851.7157600000064,852.6991269999999,852.6979447699996,t,1,,855.198767000009,0.890892299998086,,,,,853.6979993999994,,,,,elpida_19_10_23,gn_hugin4,2023-10-19_11h16.53.773,Oddball_task,2022.2.5,60.3120666932661,
standard,soundFiles/250Hz_44100Hz_16bit_05sec.wav',None,251,,,,,35,3,178,2,,,,,855.2153306999971,856.1980424000067,856.1984400700021,None,1,,858.698406800002,,,,,,,,,,,elpida_19_10_23,gn_hugin4,2023-10-19_11h16.53.773,Oddball_task,2022.2.5,60.3120666932661,
standard,soundFiles/250Hz_44100Hz_16bit_05sec.wav',None,250,,,,,35,4,179,1,,,,,858.714833200007,859.698283699996,859.6977281699947,None,1,,862.1977675000089,,,,,,,,,,,elpida_19_10_23,gn_hugin4,2023-10-19_11h16.53.773,Oddball_task,2022.2.5,60.3120666932661,
standard,soundFiles/250Hz_44100Hz_16bit_05sec.wav',None,250,,,,,36,0,180,1,,,,,862.2154847000056,863.1985803999996,863.1980070700083,None,1,,865.6983209000027,,,,,,,,,,,elpida_19_10_23,gn_hugin4,2023-10-19_11h16.53.773,Oddball_task,2022.2.5,60.3120666932661,
standard,soundFiles/250Hz_44100Hz_16bit_05sec.wav',None,251,,,,,36,1,181,2,,,,,865.7146060000086,866.6999603000004,866.6979744700075,None,1,,869.1989723000006,,,,,,,,,,,elpida_19_10_23,gn_hugin4,2023-10-19_11h16.53.773,Oddball_task,2022.2.5,60.3120666932661,
standard,soundFiles/250Hz_44100Hz_16bit_05sec.wav',None,250,,,,,36,2,182,0,,,,,869.2160580000054,870.1980680999986,870.1982481699961,None,1,,872.6998811999947,,,,,,,,,,,elpida_19_10_23,gn_hugin4,2023-10-19_11h16.53.773,Oddball_task,2022.2.5,60.3120666932661,
target,soundFiles/1200Hz_-3dBFS_3s_44.1kHz.wav',t,1200,,,,,36,3,183,4,,,,,872.7153538999992,873.6987957999954,873.6990740699985,t,1,,876.1982884000026,0.9472844999982044,,,,,874.6983887999959,,,,,elpida_19_10_23,gn_hugin4,2023-10-19_11h16.53.773,Oddball_task,2022.2.5,60.3120666932661,
standard,soundFiles/250Hz_44100Hz_16bit_05sec.wav',None,250,,,,,36,4,184,3,,,,,876.2148314000078,877.1985057999991,877.1977747700003,None,1,,879.6986672000057,,,,,,,,,,,elpida_19_10_23,gn_hugin4,2023-10-19_11h16.53.773,Oddball_task,2022.2.5,60.3120666932661,
standard,soundFiles/250Hz_44100Hz_16bit_05sec.wav',None,251,,,,,37,0,185,2,,,,,879.7149900000077,880.6990152000071,880.6984741699998,None,1,,883.1992681999982,,,,,,,,,,,elpida_19_10_23,gn_hugin4,2023-10-19_11h16.53.773,Oddball_task,2022.2.5,60.3120666932661,
target,soundFiles/1200Hz_-3dBFS_3s_44.1kHz.wav',t,1200,,,,,37,1,186,4,,,,,883.2150835000066,884.1984365999961,884.1978821700031,t,1,,886.6988180000044,0.727261299995007,,,,,,,,,,elpida_19_10_23,gn_hugin4,2023-10-19_11h16.53.773,Oddball_task,2022.2.5,60.3120666932661,
standard,soundFiles/250Hz_44100Hz_16bit_05sec.wav',None,250,,,,,37,2,187,3,,,,,886.7150694000011,887.6985702999955,887.6987021700043,None,1,,890.198648000005,,,,,,,,,,,elpida_19_10_23,gn_hugin4,2023-10-19_11h16.53.773,Oddball_task,2022.2.5,60.3120666932661,
standard,soundFiles/250Hz_44100Hz_16bit_05sec.wav',None,250,,,,,37,3,188,0,,,,,890.2152462999948,891.199317999999,891.1987512699998,None,1,,,,,,,,,,,,,elpida_19_10_23,gn_hugin4,2023-10-19_11h16.53.773,Oddball_task,2022.2.5,60.3120666932661,
standard,soundFiles/250Hz_44100Hz_16bit_05sec.wav',None,250,,,,,37,4,189,1,,,,,893.7156243000063,894.6991122000036,894.6987747700041,None,1,,897.1992028999957,,,,,,895.6983414999995,,,,,elpida_19_10_23,gn_hugin4,2023-10-19_11h16.53.773,Oddball_task,2022.2.5,60.3120666932661,
standard,soundFiles/250Hz_44100Hz_16bit_05sec.wav',None,250,,,,,38,0,190,3,,,,,897.2147299000062,898.1995089999982,898.1978054700012,None,1,,900.6985554999992,,,,,,,,,,,elpida_19_10_23,gn_hugin4,2023-10-19_11h16.53.773,Oddball_task,2022.2.5,60.3120666932661,
standard,soundFiles/250Hz_44100Hz_16bit_05sec.wav',None,250,,,,,38,1,191,1,,,,,900.7151182999951,901.6988917999988,901.6985864699964,None,1,,904.1982363999996,,,,,,,,,,,elpida_19_10_23,gn_hugin4,2023-10-19_11h16.53.773,Oddball_task,2022.2.5,60.3120666932661,
target,soundFiles/1200Hz_-3dBFS_3s_44.1kHz.wav',t,1200,,,,,38,2,192,4,,,,,904.2151490999968,905.1991342999972,905.1984376699984,t,1,,907.6987382000079,0.7921425000095041,,,,,,,,,,elpida_19_10_23,gn_hugin4,2023-10-19_11h16.53.773,Oddball_task,2022.2.5,60.3120666932661,
standard,soundFiles/250Hz_44100Hz_16bit_05sec.wav',None,251,,,,,38,3,193,2,,,,,907.7149574000068,908.6987681000028,908.6981270700053,None,1,,911.1986588,,,,,,,,,,,elpida_19_10_23,gn_hugin4,2023-10-19_11h16.53.773,Oddball_task,2022.2.5,60.3120666932661,
standard,soundFiles/250Hz_44100Hz_16bit_05sec.wav',None,250,,,,,38,4,194,0,,,,,911.215223200008,912.1992507999967,912.1982422699948,None,1,,914.6987746999948,,,,,,,,,,,elpida_19_10_23,gn_hugin4,2023-10-19_11h16.53.773,Oddball_task,2022.2.5,60.3120666932661,
standard,soundFiles/250Hz_44100Hz_16bit_05sec.wav',None,250,,,,,39,0,195,3,,,,,914.7147078999988,915.6994372000045,915.698283870006,None,1,,,,,,,,,,,,,elpida_19_10_23,gn_hugin4,2023-10-19_11h16.53.773,Oddball_task,2022.2.5,60.3120666932661,
standard,soundFiles/250Hz_44100Hz_16bit_05sec.wav',None,251,,,,,39,1,196,2,,,,,918.2152103999979,919.199609999996,919.1986912700086,None,1,,921.699074899996,,,,,,,,,,,elpida_19_10_23,gn_hugin4,2023-10-19_11h16.53.773,Oddball_task,2022.2.5,60.3120666932661,
standard,soundFiles/250Hz_44100Hz_16bit_05sec.wav',None,250,,,,,39,2,197,1,,,,,921.7151868000074,922.6985488000064,922.698796769997,None,1,,925.198950200007,,,,,,,,,,,elpida_19_10_23,gn_hugin4,2023-10-19_11h16.53.773,Oddball_task,2022.2.5,60.3120666932661,
target,soundFiles/1200Hz_-3dBFS_3s_44.1kHz.wav',t,1200,,,,,39,3,198,4,,,,,925.2150556999986,926.1985351000039,926.1987937700032,t,1,,928.6988334000052,0.8394149000087054,,,,,,,,,,elpida_19_10_23,gn_hugin4,2023-10-19_11h16.53.773,Oddball_task,2022.2.5,60.3120666932661,
standard,soundFiles/250Hz_44100Hz_16bit_05sec.wav',None,250,,,,,39,4,199,0,,,,,928.7155363000056,929.6993411000003,929.6986958699999,None,1,,932.1993596999964,,,,,,,,,,,elpida_19_10_23,gn_hugin4,2023-10-19_11h16.53.773,Oddball_task,2022.2.5,60.3120666932661,
standard,soundFiles/250Hz_44100Hz_16bit_05sec.wav',None,250,,,,,40,0,200,0,,,,,932.2154467000073,933.1990147000033,933.1991353699996,None,1,,935.6985524000047,,,,,,934.1984217999998,,,,,elpida_19_10_23,gn_hugin4,2023-10-19_11h16.53.773,Oddball_task,2022.2.5,60.3120666932661,
standard,soundFiles/250Hz_44100Hz_16bit_05sec.wav',None,251,,,,,40,1,201,2,,,,,935.7152304000047,936.6990425999975,936.6988107700017,None,1,,939.1984530000045,,,,,,,,,,,elpida_19_10_23,gn_hugin4,2023-10-19_11h16.53.773,Oddball_task,2022.2.5,60.3120666932661,
target,soundFiles/1200Hz_-3dBFS_3s_44.1kHz.wav',t,1200,,,,,40,2,202,4,,,,,939.2153609000088,940.1982764999993,940.1987976700038,t,1,,942.6990834000026,0.8476414999895496,,,,,,,,,,elpida_19_10_23,gn_hugin4,2023-10-19_11h16.53.773,Oddball_task,2022.2.5,60.3120666932661,
standard,soundFiles/250Hz_44100Hz_16bit_05sec.wav',None,250,,,,,40,3,203,3,,,,,942.715154000005,943.6982095999992,943.698675770007,None,1,,946.2002015000035,,,,,,,,,,,elpida_19_10_23,gn_hugin4,2023-10-19_11h16.53.773,Oddball_task,2022.2.5,60.3120666932661,
standard,soundFiles/250Hz_44100Hz_16bit_05sec.wav',None,250,,,,,40,4,204,1,,,,,946.2161899000057,947.1986712000071,947.19815887,None,1,,949.6988227999973,,,,,,,,,,,elpida_19_10_23,gn_hugin4,2023-10-19_11h16.53.773,Oddball_task,2022.2.5,60.3120666932661,
standard,soundFiles/250Hz_44100Hz_16bit_05sec.wav',None,250,,,,,41,0,205,0,,,,,949.7153451000049,950.6998968999978,950.6986487700051,None,1,,,,,,,,,,,,,elpida_19_10_23,gn_hugin4,2023-10-19_11h16.53.773,Oddball_task,2022.2.5,60.3120666932661,
target,soundFiles/1200Hz_-3dBFS_3s_44.1kHz.wav',t,1200,,,,,41,1,206,4,,,,,953.2152630000055,954.1985665999964,954.1987896700011,t,1,,956.6993496000068,0.7918892999878153,,,,,,,,,,elpida_19_10_23,gn_hugin4,2023-10-19_11h16.53.773,Oddball_task,2022.2.5,60.3120666932661,
standard,soundFiles/250Hz_44100Hz_16bit_05sec.wav',None,250,,,,,41,2,207,1,,,,,956.7159532000078,957.699411499998,957.6988400700066,None,1,,960.1987692999974,,,,,,,,,,,elpida_19_10_23,gn_hugin4,2023-10-19_11h16.53.773,Oddball_task,2022.2.5,60.3120666932661,
standard,soundFiles/250Hz_44100Hz_16bit_05sec.wav',None,251,,,,,41,3,208,2,,,,,960.2152095000056,961.1981731999986,961.1990903700062,None,1,,963.6996562999993,,,,,,,,,,,elpida_19_10_23,gn_hugin4,2023-10-19_11h16.53.773,Oddball_task,2022.2.5,60.3120666932661,
standard,soundFiles/250Hz_44100Hz_16bit_05sec.wav',None,250,,,,,41,4,209,3,,,,,963.7162332000007,964.6988226999965,964.6988333699992,None,1,,967.1995804000035,,,,,,,,,,,elpida_19_10_23,gn_hugin4,2023-10-19_11h16.53.773,Oddball_task,2022.2.5,60.3120666932661,
standard,soundFiles/250Hz_44100Hz_16bit_05sec.wav',None,250,,,,,42,0,210,0,,,,,967.2159012000047,968.1992777999985,968.1982626700046,None,1,,970.6986084999953,,,,,,,,,,,elpida_19_10_23,gn_hugin4,2023-10-19_11h16.53.773,Oddball_task,2022.2.5,60.3120666932661,
standard,soundFiles/250Hz_44100Hz_16bit_05sec.wav',None,250,,,,,42,1,211,3,,,,,970.7160501000035,971.6985038999992,971.6983772700041,None,1,,974.1987948000024,,,,,,,,,,,elpida_19_10_23,gn_hugin4,2023-10-19_11h16.53.773,Oddball_task,2022.2.5,60.3120666932661,
target,soundFiles/1200Hz_-3dBFS_3s_44.1kHz.wav',t,1200,,,,,42,2,212,4,,,,,974.2152320000023,975.1985391000053,975.1982629700069,t,1,,977.6990189000062,0.8094780999963405,,,,,976.1990007999993,,,,,elpida_19_10_23,gn_hugin4,2023-10-19_11h16.53.773,Oddball_task,2022.2.5,60.3120666932661,
standard,soundFiles/250Hz_44100Hz_16bit_05sec.wav',None,250,,,,,42,3,213,1,,,,,977.715435200007,978.6992128999991,978.6985970700043,None,1,,981.1990302000049,,,,,,,,,,,elpida_19_10_23,gn_hugin4,2023-10-19_11h16.53.773,Oddball_task,2022.2.5,60.3120666932661,
standard,soundFiles/250Hz_44100Hz_16bit_05sec.wav',None,251,,,,,42,4,214,2,,,,,981.2158558000083,982.1985505000048,982.1990330700064,None,1,,984.6988663000084,,,,,,,,,,,elpida_19_10_23,gn_hugin4,2023-10-19_11h16.53.773,Oddball_task,2022.2.5,60.3120666932661,
target,soundFiles/1200Hz_-3dBFS_3s_44.1kHz.wav',t,1200,,,,,43,0,215,4,,,,,984.7153590000089,985.6983681999991,985.6983781699964,t,1,,988.1993966000009,0.6927888999925926,,,,,,,,,,elpida_19_10_23,gn_hugin4,2023-10-19_11h16.53.773,Oddball_task,2022.2.5,60.3120666932661,
standard,soundFiles/250Hz_44100Hz_16bit_05sec.wav',None,251,,,,,43,1,216,2,,,,,988.2155471000005,989.2000904000015,989.1989478699979,None,1,,991.699136700001,,,,,,,,,,,elpida_19_10_23,gn_hugin4,2023-10-19_11h16.53.773,Oddball_task,2022.2.5,60.3120666932661,
standard,soundFiles/250Hz_44100Hz_16bit_05sec.wav',None,250,,,,,43,2,217,0,,,,,991.7157085000072,992.7001431999961,992.6988627700048,None,1,,,,,,,,,,,,,elpida_19_10_23,gn_hugin4,2023-10-19_11h16.53.773,Oddball_task,2022.2.5,60.3120666932661,
standard,soundFiles/250Hz_44100Hz_16bit_05sec.wav',None,250,,,,,43,3,218,3,,,,,995.2151943000063,996.1998036000005,996.1989751700021,None,1,,998.6986113000021,,,,,,997.1988030000066,,,,,elpida_19_10_23,gn_hugin4,2023-10-19_11h16.53.773,Oddball_task,2022.2.5,60.3120666932661,
standard,soundFiles/250Hz_44100Hz_16bit_05sec.wav',None,250,,,,,43,4,219,1,,,,,998.7158637999964,999.6997639000037,999.6991321700043,None,1,,1002.198850300003,,,,,,,,,,,elpida_19_10_23,gn_hugin4,2023-10-19_11h16.53.773,Oddball_task,2022.2.5,60.3120666932661,
standard,soundFiles/250Hz_44100Hz_16bit_05sec.wav',None,250,,,,,44,0,220,1,,,,,1002.215254900002,1003.1993995999946,1003.1994648700056,None,1,,1005.6990871000016,,,,,,,,,,,elpida_19_10_23,gn_hugin4,2023-10-19_11h16.53.773,Oddball_task,2022.2.5,60.3120666932661,
standard,soundFiles/250Hz_44100Hz_16bit_05sec.wav',None,250,,,,,44,1,221,0,,,,,1005.7154690000025,1006.6984936000081,1006.6993268700026,None,1,,1009.1992966999969,,,,,,,,,,,elpida_19_10_23,gn_hugin4,2023-10-19_11h16.53.773,Oddball_task,2022.2.5,60.3120666932661,
standard,soundFiles/250Hz_44100Hz_16bit_05sec.wav',None,251,,,,,44,2,222,2,,,,,1009.215495299999,1010.199305800008,1010.1984543700091,None,1,,1012.6994669999985,,,,,,,,,,,elpida_19_10_23,gn_hugin4,2023-10-19_11h16.53.773,Oddball_task,2022.2.5,60.3120666932661,
standard,soundFiles/250Hz_44100Hz_16bit_05sec.wav',None,250,,,,,44,3,223,3,,,,,1012.7155867999973,1013.6990613999951,1013.6988182700006,None,1,,1016.1991091999953,,,,,,,,,,,elpida_19_10_23,gn_hugin4,2023-10-19_11h16.53.773,Oddball_task,2022.2.5,60.3120666932661,
target,soundFiles/1200Hz_-3dBFS_3s_44.1kHz.wav',t,1200,,,,,44,4,224,4,,,,,1016.2151621000085,1017.1990648000065,1017.1990960700059,t,1,,1019.6990174999955,0.7521244999952614,,,,,1018.1989213000052,,,,,elpida_19_10_23,gn_hugin4,2023-10-19_11h16.53.773,Oddball_task,2022.2.5,60.3120666932661,
target,soundFiles/1200Hz_-3dBFS_3s_44.1kHz.wav',t,1200,,,,,45,0,225,4,,,,,1019.715832300004,1020.6999232000089,1020.6993096700025,t,1,,1023.1990036000061,0.8602285000088159,,,,,,,,,,elpida_19_10_23,gn_hugin4,2023-10-19_11h16.53.773,Oddball_task,2022.2.5,60.3120666932661,
standard,soundFiles/250Hz_44100Hz_16bit_05sec.wav',None,250,,,,,45,1,226,3,,,,,1023.2160186999972,1024.198791200004,1024.199045469999,None,1,,1026.6994821999979,,,,,,,,,,,elpida_19_10_23,gn_hugin4,2023-10-19_11h16.53.773,Oddball_task,2022.2.5,60.3120666932661,
standard,soundFiles/250Hz_44100Hz_16bit_05sec.wav',None,251,,,,,45,2,227,2,,,,,1026.7156388000003,1027.6990629000065,1027.699580970002,None,1,,1030.1987646000052,,,,,,,,,,,elpida_19_10_23,gn_hugin4,2023-10-19_11h16.53.773,Oddball_task,2022.2.5,60.3120666932661,
standard,soundFiles/250Hz_44100Hz_16bit_05sec.wav',None,250,,,,,45,3,228,1,,,,,1030.216140000004,1031.2000591999968,1031.198960670008,None,1,,,,,,,,,,,,,elpida_19_10_23,gn_hugin4,2023-10-19_11h16.53.773,Oddball_task,2022.2.5,60.3120666932661,
standard,soundFiles/250Hz_44100Hz_16bit_05sec.wav',None,250,,,,,45,4,229,0,,,,,1033.7164004000078,1034.6995209000015,1034.6984147699986,None,1,,1037.1989963000087,,,,,,,,,,,elpida_19_10_23,gn_hugin4,2023-10-19_11h16.53.773,Oddball_task,2022.2.5,60.3120666932661,
standard,soundFiles/250Hz_44100Hz_16bit_05sec.wav',None,250,,,,,46,0,230,3,,,,,1037.2154386000038,1038.1992989999999,1038.198840469995,None,1,,1040.699854400009,,,,,,,,,,,elpida_19_10_23,gn_hugin4,2023-10-19_11h16.53.773,Oddball_task,2022.2.5,60.3120666932661,
target,soundFiles/1200Hz_-3dBFS_3s_44.1kHz.wav',t,1200,,,,,46,1,231,4,,,,,1040.7161180999974,1041.6988561000035,1041.6987775699963,t,1,,1044.199064600005,0.9809916999947745,,,,,,,,,,elpida_19_10_23,gn_hugin4,2023-10-19_11h16.53.773,Oddball_task,2022.2.5,60.3120666932661,
standard,soundFiles/250Hz_44100Hz_16bit_05sec.wav',None,250,,,,,46,2,232,1,,,,,1044.2163209999999,1045.1988913999958,1045.198813370007,None,1,,1047.6993336000014,,,,,,,,,,,elpida_19_10_23,gn_hugin4,2023-10-19_11h16.53.773,Oddball_task,2022.2.5,60.3120666932661,
standard,soundFiles/250Hz_44100Hz_16bit_05sec.wav',None,251,,,,,46,3,233,2,,,,,1047.7151975000015,1048.7002688000066,1048.7001018699957,None,1,,1051.2000496999972,,,,,,,,,,,elpida_19_10_23,gn_hugin4,2023-10-19_11h16.53.773,Oddball_task,2022.2.5,60.3120666932661,
standard,soundFiles/250Hz_44100Hz_16bit_05sec.wav',None,250,,,,,46,4,234,0,,,,,1051.2161617999955,1052.1995907999953,1052.1991988700029,None,1,,1054.6992452999984,,,,,,,,,,,elpida_19_10_23,gn_hugin4,2023-10-19_11h16.53.773,Oddball_task,2022.2.5,60.3120666932661,
standard,soundFiles/250Hz_44100Hz_16bit_05sec.wav',None,251,,,,,47,0,235,2,,,,,1054.7156461999984,1055.698955800006,1055.6989437699958,None,1,,1058.1995860000025,,,,,,,,,,,elpida_19_10_23,gn_hugin4,2023-10-19_11h16.53.773,Oddball_task,2022.2.5,60.3120666932661,
standard,soundFiles/250Hz_44100Hz_16bit_05sec.wav',None,250,,,,,47,1,236,0,,,,,1058.2158165,1059.1993277000001,1059.1992153699975,None,1,,1061.6991470000066,,,,,,,,,,,elpida_19_10_23,gn_hugin4,2023-10-19_11h16.53.773,Oddball_task,2022.2.5,60.3120666932661,
standard,soundFiles/250Hz_44100Hz_16bit_05sec.wav',None,250,,,,,47,2,237,3,,,,,1061.7163841000001,1062.6990609000059,1062.6995059699984,None,1,,1065.1993075000064,,,,,,,,,,,elpida_19_10_23,gn_hugin4,2023-10-19_11h16.53.773,Oddball_task,2022.2.5,60.3120666932661,
target,soundFiles/1200Hz_-3dBFS_3s_44.1kHz.wav',t,1200,,,,,47,3,238,4,,,,,1065.2159054000076,1066.1988381999981,1066.1995126700058,None,0,,1068.6988170999975,,,,,,,,,,,elpida_19_10_23,gn_hugin4,2023-10-19_11h16.53.773,Oddball_task,2022.2.5,60.3120666932661,
standard,soundFiles/250Hz_44100Hz_16bit_05sec.wav',None,250,,,,,47,4,239,1,,,,,1068.715303799996,1069.6999495000055,1069.6995551699947,None,1,,1072.199817700006,,,,,,,,,,,elpida_19_10_23,gn_hugin4,2023-10-19_11h16.53.773,Oddball_task,2022.2.5,60.3120666932661,
standard,soundFiles/250Hz_44100Hz_16bit_05sec.wav',None,251,,,,,48,0,240,2,,,,,1072.2161540000088,1073.1999708000076,1073.1988704700052,None,1,,1075.6996492000035,,,,,,,,,,,elpida_19_10_23,gn_hugin4,2023-10-19_11h16.53.773,Oddball_task,2022.2.5,60.3120666932661,
standard,soundFiles/250Hz_44100Hz_16bit_05sec.wav',None,250,,,,,48,1,241,1,,,,,1075.7158106999996,1076.6994339999947,1076.6988210700074,None,1,,1079.1994397999952,,,,,,1077.6993771999987,,,,,elpida_19_10_23,gn_hugin4,2023-10-19_11h16.53.773,Oddball_task,2022.2.5,60.3120666932661,
standard,soundFiles/250Hz_44100Hz_16bit_05sec.wav',None,250,,,,,48,2,242,3,,,,,1079.2159847000003,1080.1987681000028,1080.1988640700001,None,1,,1082.6995325000025,,,,,,,,,,,elpida_19_10_23,gn_hugin4,2023-10-19_11h16.53.773,Oddball_task,2022.2.5,60.3120666932661,
target,soundFiles/1200Hz_-3dBFS_3s_44.1kHz.wav',t,1200,,,,,48,3,243,4,,,,,1082.716987000007,1083.7002689000074,1083.700577570009,t,1,,1086.1994401999982,0.9068355999916093,,,,,,,,,,elpida_19_10_23,gn_hugin4,2023-10-19_11h16.53.773,Oddball_task,2022.2.5,60.3120666932661,
standard,soundFiles/250Hz_44100Hz_16bit_05sec.wav',None,250,,,,,48,4,244,0,,,,,1086.2172531999968,1087.1991667999973,1087.199069470007,None,1,,1089.699879000007,,,,,,,,,,,elpida_19_10_23,gn_hugin4,2023-10-19_11h16.53.773,Oddball_task,2022.2.5,60.3120666932661,
standard,soundFiles/250Hz_44100Hz_16bit_05sec.wav',None,251,,,,,49,0,245,2,,,,,1089.7162704000075,1090.699320300002,1090.6991840700066,None,1,,1093.199835499996,,,,,,,,,,,elpida_19_10_23,gn_hugin4,2023-10-19_11h16.53.773,Oddball_task,2022.2.5,60.3120666932661,
target,soundFiles/1200Hz_-3dBFS_3s_44.1kHz.wav',t,1200,,,,,49,1,246,4,,,,,1093.2171591000078,1094.1989810999949,1094.1996803700022,t,1,,1096.6993790999986,0.9920879999990575,,,,,,,,,,elpida_19_10_23,gn_hugin4,2023-10-19_11h16.53.773,Oddball_task,2022.2.5,60.3120666932661,
standard,soundFiles/250Hz_44100Hz_16bit_05sec.wav',None,250,,,,,49,2,247,1,,,,,1096.7162822999962,1097.700727000003,1097.699322569999,None,1,,1100.199517400004,,,,,,1098.699568600001,,,,,elpida_19_10_23,gn_hugin4,2023-10-19_11h16.53.773,Oddball_task,2022.2.5,60.3120666932661,
standard,soundFiles/250Hz_44100Hz_16bit_05sec.wav',None,250,,,,,49,3,248,3,,,,,1100.2157316999946,1101.1994989999948,1101.199388470006,None,1,,1103.7002141999983,,,,,,,,,,,elpida_19_10_23,gn_hugin4,2023-10-19_11h16.53.773,Oddball_task,2022.2.5,60.3120666932661,
standard,soundFiles/250Hz_44100Hz_16bit_05sec.wav',None,250,,,,,49,4,249,0,,,,,1103.717067000005,1104.6995562000084,1104.6998152699962,None,1,,1107.1993856000045,,,,,,,,,,,elpida_19_10_23,gn_hugin4,2023-10-19_11h16.53.773,Oddball_task,2022.2.5,60.3120666932661,
standard,soundFiles/250Hz_44100Hz_16bit_05sec.wav',None,250,,,,,50,0,250,3,,,,,1107.216029999996,1108.1996288000082,1108.1992628699954,None,1,,1110.7002219999995,,,,,,,,,,,elpida_19_10_23,gn_hugin4,2023-10-19_11h16.53.773,Oddball_task,2022.2.5,60.3120666932661,
standard,soundFiles/250Hz_44100Hz_16bit_05sec.wav',None,251,,,,,50,1,251,2,,,,,1110.7162013000052,1111.7005571000045,1111.6998318700062,None,1,,1114.2003228999965,,,,,,,,,,,elpida_19_10_23,gn_hugin4,2023-10-19_11h16.53.773,Oddball_task,2022.2.5,60.3120666932661,
standard,soundFiles/250Hz_44100Hz_16bit_05sec.wav',None,250,,,,,50,2,252,1,,,,,1114.216375300006,1115.1994902000006,1115.1994297700003,None,1,,1117.7002960999962,,,,,,,,,,,elpida_19_10_23,gn_hugin4,2023-10-19_11h16.53.773,Oddball_task,2022.2.5,60.3120666932661,
standard,soundFiles/250Hz_44100Hz_16bit_05sec.wav',None,250,,,,,50,3,253,0,,,,,1117.7164913000015,1118.699603400004,1118.6995951700083,None,1,,1121.199266399999,,,,,,,,,,,elpida_19_10_23,gn_hugin4,2023-10-19_11h16.53.773,Oddball_task,2022.2.5,60.3120666932661,
target,soundFiles/1200Hz_-3dBFS_3s_44.1kHz.wav',t,1200,,,,,50,4,254,4,,,,,1121.216132200003,1122.199491499996,1122.199673969997,t,1,,1124.6991069000069,0.8004999999975553,,,,,,,,,,elpida_19_10_23,gn_hugin4,2023-10-19_11h16.53.773,Oddball_task,2022.2.5,60.3120666932661,
standard,soundFiles/250Hz_44100Hz_16bit_05sec.wav',None,250,,,,,51,0,255,3,,,,,1124.7161347000074,1125.699727900006,1125.6997251700086,None,1,,1128.1996891000017,,,,,,,,,,,elpida_19_10_23,gn_hugin4,2023-10-19_11h16.53.773,Oddball_task,2022.2.5,60.3120666932661,
standard,soundFiles/250Hz_44100Hz_16bit_05sec.wav',None,251,,,,,51,1,256,2,,,,,1128.2158865999954,1129.1996581999992,1129.1996743700001,None,1,,1131.699732699999,,,,,,,,,,,elpida_19_10_23,gn_hugin4,2023-10-19_11h16.53.773,Oddball_task,2022.2.5,60.3120666932661,
standard,soundFiles/250Hz_44100Hz_16bit_05sec.wav',None,250,,,,,51,2,257,0,,,,,1131.7165053000062,1132.6998228000011,1132.701080769999,None,1,,1135.2004599000065,,,,,,,,,,,elpida_19_10_23,gn_hugin4,2023-10-19_11h16.53.773,Oddball_task,2022.2.5,60.3120666932661,
target,soundFiles/1200Hz_-3dBFS_3s_44.1kHz.wav',t,1200,,,,,51,3,258,4,,,,,1135.2166846000036,1136.1997617000015,1136.1993851699954,t,1,,1138.6996993000066,0.7519592000026023,,,,,,,,,,elpida_19_10_23,gn_hugin4,2023-10-19_11h16.53.773,Oddball_task,2022.2.5,60.3120666932661,
standard,soundFiles/250Hz_44100Hz_16bit_05sec.wav',None,250,,,,,51,4,259,1,,,,,1138.7160300999967,1139.700207700007,1139.6989193699992,None,1,,1142.1996751999977,,,,,,1140.6998621999956,,,,,elpida_19_10_23,gn_hugin4,2023-10-19_11h16.53.773,Oddball_task,2022.2.5,60.3120666932661,
target,soundFiles/1200Hz_-3dBFS_3s_44.1kHz.wav',t,1200,,,,,52,0,260,4,,,,,1142.2162585000042,1143.1997564000048,1143.1995063700015,t,1,,1145.6997212999995,0.8953866000083508,,,,,,,,,,elpida_19_10_23,gn_hugin4,2023-10-19_11h16.53.773,Oddball_task,2022.2.5,60.3120666932661,
standard,soundFiles/250Hz_44100Hz_16bit_05sec.wav',None,250,,,,,52,1,261,0,,,,,1145.7163721999968,1146.699560100009,1146.6995903700008,None,1,,1149.2006853000057,,,,,,,,,,,elpida_19_10_23,gn_hugin4,2023-10-19_11h16.53.773,Oddball_task,2022.2.5,60.3120666932661,
standard,soundFiles/250Hz_44100Hz_16bit_05sec.wav',None,251,,,,,52,2,262,2,,,,,1149.216704999999,1150.1997928000055,1150.1989027700038,None,1,,1152.6995413999975,,,,,,,,,,,elpida_19_10_23,gn_hugin4,2023-10-19_11h16.53.773,Oddball_task,2022.2.5,60.3120666932661,
standard,soundFiles/250Hz_44100Hz_16bit_05sec.wav',None,250,,,,,52,3,263,1,,,,,1152.7157731000043,1153.6993460000085,1153.699120670004,None,1,,1156.1995539000054,,,,,,,,,,,elpida_19_10_23,gn_hugin4,2023-10-19_11h16.53.773,Oddball_task,2022.2.5,60.3120666932661,
standard,soundFiles/250Hz_44100Hz_16bit_05sec.wav',None,250,,,,,52,4,264,3,,,,,1156.2166140000045,1157.1995329000056,1157.1995130700088,None,1,,1159.6996255999984,,,,,,1158.2001179000072,,,,,elpida_19_10_23,gn_hugin4,2023-10-19_11h16.53.773,Oddball_task,2022.2.5,60.3120666932661,
standard,soundFiles/250Hz_44100Hz_16bit_05sec.wav',None,250,,,,,53,0,265,1,,,,,1159.7183545000007,1160.7003135999985,1160.699685569998,None,1,,1163.2004882000037,,,,,,,,,,,elpida_19_10_23,gn_hugin4,2023-10-19_11h16.53.773,Oddball_task,2022.2.5,60.3120666932661,
standard,soundFiles/250Hz_44100Hz_16bit_05sec.wav',None,250,,,,,53,1,266,3,,,,,1163.2164301000012,1164.1999408999982,1164.2000560699962,None,1,,1166.7010463000042,,,,,,,,,,,elpida_19_10_23,gn_hugin4,2023-10-19_11h16.53.773,Oddball_task,2022.2.5,60.3120666932661,
target,soundFiles/1200Hz_-3dBFS_3s_44.1kHz.wav',t,1200,,,,,53,2,267,4,,,,,1166.7174219000008,1167.6996555000078,1167.7000689700071,t,1,,1170.1997097999993,0.8195172999985516,,,,,,,,,,elpida_19_10_23,gn_hugin4,2023-10-19_11h16.53.773,Oddball_task,2022.2.5,60.3120666932661,
standard,soundFiles/250Hz_44100Hz_16bit_05sec.wav',None,250,,,,,53,3,268,0,,,,,1170.216932299998,1171.2002435000031,1171.200389370002,None,1,,1173.6998681999976,,,,,,,,,,,elpida_19_10_23,gn_hugin4,2023-10-19_11h16.53.773,Oddball_task,2022.2.5,60.3120666932661,
standard,soundFiles/250Hz_44100Hz_16bit_05sec.wav',None,251,,,,,53,4,269,2,,,,,1173.7160521000042,1174.7000679000048,1174.699768270002,None,1,,1177.2000741999946,,,,,,,,,,,elpida_19_10_23,gn_hugin4,2023-10-19_11h16.53.773,Oddball_task,2022.2.5,60.3120666932661,
target,soundFiles/1200Hz_-3dBFS_3s_44.1kHz.wav',t,1200,,,,,54,0,270,4,,,,,1177.2166380999988,1178.2006390000024,1178.2001292700006,t,1,,,1.1602405999874463,,,,,,,,,,elpida_19_10_23,gn_hugin4,2023-10-19_11h16.53.773,Oddball_task,2022.2.5,60.3120666932661,
standard,soundFiles/250Hz_44100Hz_16bit_05sec.wav',None,250,,,,,54,1,271,3,,,,,1180.7166108999954,1181.7001990999997,1181.7001237700024,None,1,,1184.200666500008,,,,,,,,,,,elpida_19_10_23,gn_hugin4,2023-10-19_11h16.53.773,Oddball_task,2022.2.5,60.3120666932661,
standard,soundFiles/250Hz_44100Hz_16bit_05sec.wav',None,251,,,,,54,2,272,2,,,,,1184.2165699000034,1185.1991035999963,1185.19919467,None,1,,1187.700125400006,,,,,,,,,,,elpida_19_10_23,gn_hugin4,2023-10-19_11h16.53.773,Oddball_task,2022.2.5,60.3120666932661,
standard,soundFiles/250Hz_44100Hz_16bit_05sec.wav',None,250,,,,,54,3,273,0,,,,,1187.7166298000084,1188.6995167999994,1188.6997194700089,None,1,,1191.1997803999984,,,,,,,,,,,elpida_19_10_23,gn_hugin4,2023-10-19_11h16.53.773,Oddball_task,2022.2.5,60.3120666932661,
standard,soundFiles/250Hz_44100Hz_16bit_05sec.wav',None,250,,,,,54,4,274,1,,,,,1191.217482100008,1192.2004633000033,1192.199986770007,None,1,,1194.6997409000032,,,,,,,,,,,elpida_19_10_23,gn_hugin4,2023-10-19_11h16.53.773,Oddball_task,2022.2.5,60.3120666932661,
standard,soundFiles/250Hz_44100Hz_16bit_05sec.wav',None,250,,,,,55,0,275,0,,,,,1194.716593899997,1195.700091000006,1195.6996872699965,None,1,,1198.2002694999974,,,,,,,,,,,elpida_19_10_23,gn_hugin4,2023-10-19_11h16.53.773,Oddball_task,2022.2.5,60.3120666932661,
standard,soundFiles/250Hz_44100Hz_16bit_05sec.wav',None,250,,,,,55,1,276,3,,,,,1198.216535700005,1199.2005663000018,1199.1994808699965,None,1,,1201.6998945999949,,,,,,1200.200127899996,,,,,elpida_19_10_23,gn_hugin4,2023-10-19_11h16.53.773,Oddball_task,2022.2.5,60.3120666932661,
standard,soundFiles/250Hz_44100Hz_16bit_05sec.wav',None,250,,,,,55,2,277,1,,,,,1201.7170207000017,1202.7006041999994,1202.6998032700067,None,1,,1205.2004619000072,,,,,,,,,,,elpida_19_10_23,gn_hugin4,2023-10-19_11h16.53.773,Oddball_task,2022.2.5,60.3120666932661,
target,soundFiles/1200Hz_-3dBFS_3s_44.1kHz.wav',t,1200,,,,,55,3,278,4,,,,,1205.2175106000068,1206.1998359999998,1206.2003030699998,t,1,,1208.7002018000057,0.8802416000107769,,,,,,,,,,elpida_19_10_23,gn_hugin4,2023-10-19_11h16.53.773,Oddball_task,2022.2.5,60.3120666932661,
standard,soundFiles/250Hz_44100Hz_16bit_05sec.wav',None,251,,,,,55,4,279,2,,,,,1208.7167172000045,1209.6995824000041,1209.699825470001,None,1,,1212.1999885999976,,,,,,,,,,,elpida_19_10_23,gn_hugin4,2023-10-19_11h16.53.773,Oddball_task,2022.2.5,60.3120666932661,
standard,soundFiles/250Hz_44100Hz_16bit_05sec.wav',None,250,,,,,56,0,280,1,,,,,1212.2169031999947,1213.1997613999993,1213.1993496700015,None,1,,1215.7006343999965,,,,,,,,,,,elpida_19_10_23,gn_hugin4,2023-10-19_11h16.53.773,Oddball_task,2022.2.5,60.3120666932661,
standard,soundFiles/250Hz_44100Hz_16bit_05sec.wav',None,251,,,,,56,1,281,2,,,,,1215.7164309000073,1216.6993740000034,1216.699324369998,None,1,,1219.2001192000025,,,,,,,,,,,elpida_19_10_23,gn_hugin4,2023-10-19_11h16.53.773,Oddball_task,2022.2.5,60.3120666932661,
standard,soundFiles/250Hz_44100Hz_16bit_05sec.wav',None,250,,,,,56,2,282,0,,,,,1219.216595100006,1220.1998771000071,1220.1995531700086,None,1,,1222.7005156000087,,,,,,1221.1998612000025,,,,,elpida_19_10_23,gn_hugin4,2023-10-19_11h16.53.773,Oddball_task,2022.2.5,60.3120666932661,
standard,soundFiles/250Hz_44100Hz_16bit_05sec.wav',None,250,,,,,56,3,283,3,,,,,1222.7166784,1223.6999780000042,1223.6995220700046,None,1,,1226.200549000001,,,,,,,,,,,elpida_19_10_23,gn_hugin4,2023-10-19_11h16.53.773,Oddball_task,2022.2.5,60.3120666932661,
target,soundFiles/1200Hz_-3dBFS_3s_44.1kHz.wav',t,1200,,,,,56,4,284,4,,,,,1226.217105799995,1227.1999977000087,1227.1999969699973,t,1,,1229.7000346999994,0.6566766000032658,,,,,,,,,,elpida_19_10_23,gn_hugin4,2023-10-19_11h16.53.773,Oddball_task,2022.2.5,60.3120666932661,
target,soundFiles/1200Hz_-3dBFS_3s_44.1kHz.wav',t,1200,,,,,57,0,285,4,,,,,1229.7169121000043,1230.6998062000057,1230.7003034700028,t,1,,1233.1997747999994,0.956068299987237,,,,,,,,,,elpida_19_10_23,gn_hugin4,2023-10-19_11h16.53.773,Oddball_task,2022.2.5,60.3120666932661,
standard,soundFiles/250Hz_44100Hz_16bit_05sec.wav',None,251,,,,,57,1,286,2,,,,,1233.216391199996,1234.2004520000046,1234.1998314700031,None,1,,1236.7000415000075,,,,,,,,,,,elpida_19_10_23,gn_hugin4,2023-10-19_11h16.53.773,Oddball_task,2022.2.5,60.3120666932661,
standard,soundFiles/250Hz_44100Hz_16bit_05sec.wav',None,250,,,,,57,2,287,1,,,,,1236.716952600007,1237.6996999999974,1237.7001859699958,None,1,,1240.2001472999982,,,,,,,,,,,elpida_19_10_23,gn_hugin4,2023-10-19_11h16.53.773,Oddball_task,2022.2.5,60.3120666932661,
standard,soundFiles/250Hz_44100Hz_16bit_05sec.wav',None,250,,,,,57,3,288,3,,,,,1240.216973600007,1241.2002837000036,1241.2000179699971,None,1,,1243.7008980999963,,,,,,,,,,,elpida_19_10_23,gn_hugin4,2023-10-19_11h16.53.773,Oddball_task,2022.2.5,60.3120666932661,
standard,soundFiles/250Hz_44100Hz_16bit_05sec.wav',None,250,,,,,57,4,289,0,,,,,1243.717271600006,1244.700737200008,1244.6995441699983,None,1,,1247.2001720999979,,,,,,,,,,,elpida_19_10_23,gn_hugin4,2023-10-19_11h16.53.773,Oddball_task,2022.2.5,60.3120666932661,
standard,soundFiles/250Hz_44100Hz_16bit_05sec.wav',None,250,,,,,58,0,290,3,,,,,1247.2166613000009,1248.2000652999996,1248.1998476699955,None,1,,1250.700427600008,,,,,,,,,,,elpida_19_10_23,gn_hugin4,2023-10-19_11h16.53.773,Oddball_task,2022.2.5,60.3120666932661,
standard,soundFiles/250Hz_44100Hz_16bit_05sec.wav',None,250,,,,,58,1,291,0,,,,,1250.7169867000048,1251.7002568000025,1251.699944070002,None,1,,1254.199627000009,,,,,,,,,,,elpida_19_10_23,gn_hugin4,2023-10-19_11h16.53.773,Oddball_task,2022.2.5,60.3120666932661,
target,soundFiles/1200Hz_-3dBFS_3s_44.1kHz.wav',t,1200,,,,,58,2,292,4,,,,,1254.2165088000038,1255.2002089000016,1255.1995276700036,t,1,,1257.7007183999958,0.8480882000003476,,,,,,,,,,elpida_19_10_23,gn_hugin4,2023-10-19_11h16.53.773,Oddball_task,2022.2.5,60.3120666932661,
standard,soundFiles/250Hz_44100Hz_16bit_05sec.wav',None,251,,,,,58,3,293,2,,,,,1257.7168417000066,1258.7000116999989,1258.699742769997,None,1,,1261.1995883000054,,,,,,,,,,,elpida_19_10_23,gn_hugin4,2023-10-19_11h16.53.773,Oddball_task,2022.2.5,60.3120666932661,
standard,soundFiles/250Hz_44100Hz_16bit_05sec.wav',None,250,,,,,58,4,294,1,,,,,1261.2162589000072,1262.2002259,1262.2002695700066,None,1,,1264.7003276000032,,,,,,,,,,,elpida_19_10_23,gn_hugin4,2023-10-19_11h16.53.773,Oddball_task,2022.2.5,60.3120666932661,
target,soundFiles/1200Hz_-3dBFS_3s_44.1kHz.wav',t,1200,,,,,59,0,295,4,,,,,1264.7177717000013,1265.7004278999957,1265.7001053700078,t,1,,1268.1999851,0.9157119000010425,,,,,,,,,,elpida_19_10_23,gn_hugin4,2023-10-19_11h16.53.773,Oddball_task,2022.2.5,60.3120666932661,
standard,soundFiles/250Hz_44100Hz_16bit_05sec.wav',None,250,,,,,59,1,296,1,,,,,1268.2162378000066,1269.1997736000048,1269.1996782700007,None,1,,1271.7000675000018,,,,,,,,,,,elpida_19_10_23,gn_hugin4,2023-10-19_11h16.53.773,Oddball_task,2022.2.5,60.3120666932661,
standard,soundFiles/250Hz_44100Hz_16bit_05sec.wav',None,251,,,,,59,2,297,2,,,,,1271.7168530000054,1272.7002659999998,1272.6998952700087,None,1,,1275.2001591000007,,,,,,,,,,,elpida_19_10_23,gn_hugin4,2023-10-19_11h16.53.773,Oddball_task,2022.2.5,60.3120666932661,
standard,soundFiles/250Hz_44100Hz_16bit_05sec.wav',None,250,,,,,59,3,298,0,,,,,1275.2167715999967,1276.2006565000047,1276.1999468700087,None,1,,1278.7002012000012,,,,,,,,,,,elpida_19_10_23,gn_hugin4,2023-10-19_11h16.53.773,Oddball_task,2022.2.5,60.3120666932661,
standard,soundFiles/250Hz_44100Hz_16bit_05sec.wav',None,250,,,,,59,4,299,3,,,,,1278.717041900003,1279.699791200008,1279.6998355700052,None,1,,1282.2002167000028,,,,,,1280.7002887999988,,,,,elpida_19_10_23,gn_hugin4,2023-10-19_11h16.53.773,Oddball_task,2022.2.5,60.3120666932661,
,,,,,,,,,,,,,,,,,,,,,,,,,,,,,,1282.2172619000048,1285.2001665999996,1285.2167078000057,,,,,,,
