trial,file,corrAns,tone,trials_2.thisRepN,trials_2.thisTrialN,trials_2.thisN,trials_2.thisIndex,instructions.started,key_resp_1.started,key_resp_1.keys,key_resp_1.rt,fixation.started,response.started,sound_1.started,fixation.stopped,response.stopped,FixDur,response.keys,response.corr,response.rt,sound_1.stopped,thank_you.started,thank_you.stopped,exit_exp.started,exit_exp.keys,exit_exp.rt,participant,session,date,expName,psychopyVersion,frameRate,
,,,,,,,,60.613009699998656,60.613009699998656,space,21.122097799991025,,,,,,,,,,,,,,,,elpida_25_10_23,001,2023-10-25_16h39.30.564,Oddball_task,2022.2.5,60.11501204200864,
standard,soundFiles/1000Hz_-3dBFS_3s_44.1kHz.wav',None,1000,0,0,0,2,,,,,81.77805249998346,82.74524799999199,82.7452152799815,84.0125388999877,84.74538959999336,2.228518873611187,None,1,,,,,,,,elpida_25_10_23,001,2023-10-25_16h39.30.564,Oddball_task,2022.2.5,60.11501204200864,
target,soundFiles/1200Hz_-3dBFS_3s_44.1kHz.wav',t,2000,0,1,1,3,,,,,84.74538959999336,85.74548660000437,85.74521257999004,87.46158730000025,87.7455631000048,2.715014538637519,t,1,1.1017423000012059,,,,,,,elpida_25_10_23,001,2023-10-25_16h39.30.564,Oddball_task,2022.2.5,60.11501204200864,
standard,soundFiles/1000Hz_-3dBFS_3s_44.1kHz.wav',None,1000,0,2,2,0,,,,,87.7455631000048,88.74561829998856,88.74601477998658,90.71198699998786,90.74535459998879,2.954104239824556,None,1,,,,,,,,elpida_25_10_23,001,2023-10-25_16h39.30.564,Oddball_task,2022.2.5,60.11501204200864,
standard,soundFiles/1000Hz_-3dBFS_3s_44.1kHz.wav',None,1000,0,3,3,1,,,,,90.74535459998879,91.74510479997844,91.7456346800027,94.4611912999826,93.74540739998338,3.7154622135776556,None,1,,,,,,,,elpida_25_10_23,001,2023-10-25_16h39.30.564,Oddball_task,2022.2.5,60.11501204200864,
standard,soundFiles/1000Hz_-3dBFS_3s_44.1kHz.wav',None,1000,1,0,4,1,,,,,94.4611912999826,95.4625195999979,95.46182167998631,97.19552459998522,97.46287359998678,2.721093178972561,None,1,,,,,,,,elpida_25_10_23,001,2023-10-25_16h39.30.564,Oddball_task,2022.2.5,60.11501204200864,
standard,soundFiles/1000Hz_-3dBFS_3s_44.1kHz.wav',None,1000,1,1,5,0,,,,,97.46287359998678,98.46184999999241,98.46198327999446,101.01187849999405,100.48260469999514,3.546784324308052,None,1,,99.46218499998213,,,,,,elpida_25_10_23,001,2023-10-25_16h39.30.564,Oddball_task,2022.2.5,60.11501204200864,
target,soundFiles/1200Hz_-3dBFS_3s_44.1kHz.wav',t,2000,1,2,6,3,,,,,101.01187849999405,102.01182329998119,102.0119809799944,104.0961157999991,104.01204859997961,3.073990808358942,t,1,0.8671780000149738,,,,,,,elpida_25_10_23,001,2023-10-25_16h39.30.564,Oddball_task,2022.2.5,60.11501204200864,
standard,soundFiles/1000Hz_-3dBFS_3s_44.1kHz.wav',None,1000,1,3,7,2,,,,,104.0961157999991,105.09571649998543,105.09560748000513,106.14516909999656,107.09558619998279,2.04760870267974,None,1,,,,,,,,elpida_25_10_23,001,2023-10-25_16h39.30.564,Oddball_task,2022.2.5,60.11501204200864,
standard,soundFiles/1000Hz_-3dBFS_3s_44.1kHz.wav',None,1000,2,0,8,0,,,,,107.09558619998279,108.0960021999781,108.09535148000577,109.77868220000528,110.09536569999182,2.671041245572256,None,1,,,,,,,,elpida_25_10_23,001,2023-10-25_16h39.30.564,Oddball_task,2022.2.5,60.11501204200864,
target,soundFiles/1200Hz_-3dBFS_3s_44.1kHz.wav',t,2000,2,1,9,3,,,,,110.09536569999182,111.09521279999171,111.09506247998797,112.97907519998262,113.09583949999069,2.878983211346474,t,1,0.9196416999911889,,,,,,,elpida_25_10_23,001,2023-10-25_16h39.30.564,Oddball_task,2022.2.5,60.11501204200864,
standard,soundFiles/1000Hz_-3dBFS_3s_44.1kHz.wav',None,1000,2,2,10,1,,,,,113.09583949999069,114.09563219998381,114.09518678000313,116.44641529998626,116.095345299982,3.3452742777757383,None,1,,115.09588439998333,,,,,,elpida_25_10_23,001,2023-10-25_16h39.30.564,Oddball_task,2022.2.5,60.11501204200864,
standard,soundFiles/1000Hz_-3dBFS_3s_44.1kHz.wav',None,1000,2,3,11,2,,,,,116.44641529998626,117.44570409998414,117.44545277999714,119.89524769998388,119.44544129999122,3.440656858428931,None,1,,,,,,,,elpida_25_10_23,001,2023-10-25_16h39.30.564,Oddball_task,2022.2.5,60.11501204200864,
standard,soundFiles/1000Hz_-3dBFS_3s_44.1kHz.wav',None,1000,3,0,12,2,,,,,119.89524769998388,120.89708880000398,120.89668777998304,122.39547230000608,122.9123077999975,2.4951898673772814,None,1,,,,,,,,elpida_25_10_23,001,2023-10-25_16h39.30.564,Oddball_task,2022.2.5,60.11501204200864,
standard,soundFiles/1000Hz_-3dBFS_3s_44.1kHz.wav',None,1000,3,1,13,1,,,,,122.9123077999975,123.91357229999267,123.91238167998381,125.84553969997796,125.92871399997966,2.9187903419271186,None,1,,,,,,,,elpida_25_10_23,001,2023-10-25_16h39.30.564,Oddball_task,2022.2.5,60.11501204200864,
standard,soundFiles/1000Hz_-3dBFS_3s_44.1kHz.wav',None,1000,3,2,14,0,,,,,125.92871399997966,126.92930570000317,126.92948547998094,128.31238970000413,128.92864939998253,2.379504125271305,None,1,,,,,,,,elpida_25_10_23,001,2023-10-25_16h39.30.564,Oddball_task,2022.2.5,60.11501204200864,
target,soundFiles/1200Hz_-3dBFS_3s_44.1kHz.wav',t,2000,3,3,15,3,,,,,128.92864939998253,129.92984359999537,129.93006477999734,131.3620232999965,131.92856109997956,2.43130463406105,t,1,0.8935568000015337,,,,,,,elpida_25_10_23,001,2023-10-25_16h39.30.564,Oddball_task,2022.2.5,60.11501204200864,
standard,soundFiles/1000Hz_-3dBFS_3s_44.1kHz.wav',None,1000,4,0,16,0,,,,,131.92856109997956,132.92976259998977,132.92956017999677,134.41211340000154,134.929421799985,2.4804426690276498,None,1,,,,,,,,elpida_25_10_23,001,2023-10-25_16h39.30.564,Oddball_task,2022.2.5,60.11501204200864,
standard,soundFiles/1000Hz_-3dBFS_3s_44.1kHz.wav',None,1000,4,1,17,1,,,,,134.929421799985,135.92874249999295,135.92928857999505,137.37909879998188,137.9285600000003,2.44348068743908,None,1,,,,,,,,elpida_25_10_23,001,2023-10-25_16h39.30.564,Oddball_task,2022.2.5,60.11501204200864,
target,soundFiles/1200Hz_-3dBFS_3s_44.1kHz.wav',t,2000,4,2,18,3,,,,,137.9285600000003,138.91226680000545,138.91340617998503,140.86196009998093,140.91235119997873,2.9207853345453314,t,1,0.855384900001809,,,,,,,elpida_25_10_23,001,2023-10-25_16h39.30.564,Oddball_task,2022.2.5,60.11501204200864,
standard,soundFiles/1000Hz_-3dBFS_3s_44.1kHz.wav',None,1000,4,3,19,2,,,,,140.91235119997873,141.91288129999884,141.91364857999724,143.3958735000051,143.9288658000005,2.4695281251756187,None,1,,,,,,,,elpida_25_10_23,001,2023-10-25_16h39.30.564,Oddball_task,2022.2.5,60.11501204200864,
standard,soundFiles/1000Hz_-3dBFS_3s_44.1kHz.wav',None,1000,5,0,20,2,,,,,143.9288658000005,144.92911050000112,144.928617580008,147.47881199998665,146.92867090000072,3.5487975043185465,None,1,,,,,,,,elpida_25_10_23,001,2023-10-25_16h39.30.564,Oddball_task,2022.2.5,60.11501204200864,
target,soundFiles/1200Hz_-3dBFS_3s_44.1kHz.wav',t,2000,5,1,21,3,,,,,147.47881199998665,148.4786152000015,148.47847718000412,149.99563550000312,150.4785820999823,2.513168007796221,t,1,0.8165015999984462,,,,,,,elpida_25_10_23,001,2023-10-25_16h39.30.564,Oddball_task,2022.2.5,60.11501204200864,
standard,soundFiles/1000Hz_-3dBFS_3s_44.1kHz.wav',None,1000,5,2,22,1,,,,,150.4785820999823,151.47923569998238,151.47890837999876,152.84623319999082,153.4801411999797,2.3608198410811454,None,1,,,,,,,,elpida_25_10_23,001,2023-10-25_16h39.30.564,Oddball_task,2022.2.5,60.11501204200864,
standard,soundFiles/1000Hz_-3dBFS_3s_44.1kHz.wav',None,1000,5,3,23,0,,,,,153.4801411999797,154.47899549998692,154.47916397999506,157.02999739997904,156.47850919998018,3.541435077723381,None,1,,,,,,,,elpida_25_10_23,001,2023-10-25_16h39.30.564,Oddball_task,2022.2.5,60.11501204200864,
standard,soundFiles/1000Hz_-3dBFS_3s_44.1kHz.wav',None,1000,6,0,24,2,,,,,157.02999739997904,158.02879949999624,158.02919907998876,159.42919860000256,160.0292564999836,2.3964396100975547,None,1,,,,,,,,elpida_25_10_23,001,2023-10-25_16h39.30.564,Oddball_task,2022.2.5,60.11501204200864,
target,soundFiles/1200Hz_-3dBFS_3s_44.1kHz.wav',t,2000,6,1,25,3,,,,,160.0292564999836,161.02903129998595,161.0289790800016,162.88012519999756,163.04617260000668,2.8352225685857277,t,1,0.8436129000037909,,,,,,,elpida_25_10_23,001,2023-10-25_16h39.30.564,Oddball_task,2022.2.5,60.11501204200864,
standard,soundFiles/1000Hz_-3dBFS_3s_44.1kHz.wav',None,1000,6,2,26,0,,,,,163.04617260000668,164.02913499998976,164.0293505800073,166.0300572999986,166.0300572999986,2.980374246647492,None,1,,,,,,,,elpida_25_10_23,001,2023-10-25_16h39.30.564,Oddball_task,2022.2.5,60.11501204200864,
standard,soundFiles/1000Hz_-3dBFS_3s_44.1kHz.wav',None,1000,6,3,27,1,,,,,166.0300572999986,167.029149399983,167.0298594799824,168.3292131999915,169.02966050000396,2.2943052574596168,None,1,,,,,,,,elpida_25_10_23,001,2023-10-25_16h39.30.564,Oddball_task,2022.2.5,60.11501204200864,
target,soundFiles/1200Hz_-3dBFS_3s_44.1kHz.wav',t,2000,7,0,28,3,,,,,169.02966050000396,170.02912140000262,170.02918117999798,172.0297131999978,172.0297131999978,2.991335117980182,t,1,0.9304764000116847,,,,,,,elpida_25_10_23,001,2023-10-25_16h39.30.564,Oddball_task,2022.2.5,60.11501204200864,
standard,soundFiles/1000Hz_-3dBFS_3s_44.1kHz.wav',None,1000,7,1,29,1,,,,,172.0297131999978,173.0291292000038,173.0294861799921,175.9118989999988,175.02927070000442,3.881391103385943,None,1,,,,,,,,elpida_25_10_23,001,2023-10-25_16h39.30.564,Oddball_task,2022.2.5,60.11501204200864,
standard,soundFiles/1000Hz_-3dBFS_3s_44.1kHz.wav',None,1000,7,2,30,0,,,,,175.9118989999988,176.91357509998488,176.91286568000214,179.3456324999861,178.91231679997873,3.4261105439006787,None,1,,,,,,,,elpida_25_10_23,001,2023-10-25_16h39.30.564,Oddball_task,2022.2.5,60.11501204200864,
standard,soundFiles/1000Hz_-3dBFS_3s_44.1kHz.wav',None,1000,7,3,31,2,,,,,179.3456324999861,180.34546799998498,180.34608687998843,182.22967619998963,182.34555919998093,2.8764539826897986,None,1,,181.34640489998856,,,,,,elpida_25_10_23,001,2023-10-25_16h39.30.564,Oddball_task,2022.2.5,60.11501204200864,
standard,soundFiles/1000Hz_-3dBFS_3s_44.1kHz.wav',None,1000,8,0,32,1,,,,,182.34555919998093,183.34560460000648,183.34551367998938,185.66251009999542,185.3461333999876,3.305997450847817,None,1,,,,,,,,elpida_25_10_23,001,2023-10-25_16h39.30.564,Oddball_task,2022.2.5,60.11501204200864,
standard,soundFiles/1000Hz_-3dBFS_3s_44.1kHz.wav',None,1000,8,1,33,0,,,,,185.66251009999542,186.66376440000022,186.66343948000576,188.5810961999814,188.6632166999916,2.9164068360916104,None,1,,,,,,,,elpida_25_10_23,001,2023-10-25_16h39.30.564,Oddball_task,2022.2.5,60.11501204200864,
standard,soundFiles/1000Hz_-3dBFS_3s_44.1kHz.wav',None,1000,8,2,34,2,,,,,188.6632166999916,189.66237519998685,189.6623074800009,191.64635719999205,191.66232289999607,2.9772196672731024,None,1,,,,,,,,elpida_25_10_23,001,2023-10-25_16h39.30.564,Oddball_task,2022.2.5,60.11501204200864,
target,soundFiles/1200Hz_-3dBFS_3s_44.1kHz.wav',t,2000,8,3,35,3,,,,,191.66232289999607,192.66291699997964,192.66279427998234,194.86242369998945,194.6625645000022,3.192221488123484,t,1,0.9130795999953989,193.66310849998263,,,,,,elpida_25_10_23,001,2023-10-25_16h39.30.564,Oddball_task,2022.2.5,60.11501204200864,
standard,soundFiles/1000Hz_-3dBFS_3s_44.1kHz.wav',None,1000,9,0,36,0,,,,,194.86242369998945,195.86245809998945,195.86195038000005,197.5630375999899,197.86279349998222,2.696332709022509,None,1,,,,,,,,elpida_25_10_23,001,2023-10-25_16h39.30.564,Oddball_task,2022.2.5,60.11501204200864,
target,soundFiles/1200Hz_-3dBFS_3s_44.1kHz.wav',t,2000,9,1,37,3,,,,,197.86279349998222,198.86478350000107,198.86341098000412,201.32991709999624,200.87911589999567,3.4571457484663286,t,1,1.0709678000130225,,,,,,,elpida_25_10_23,001,2023-10-25_16h39.30.564,Oddball_task,2022.2.5,60.11501204200864,
standard,soundFiles/1000Hz_-3dBFS_3s_44.1kHz.wav',None,1000,9,2,38,2,,,,,201.32991709999624,202.3309569999983,202.33046307999757,204.7632526999805,204.3309006000054,3.4291316141282344,None,1,,,,,,,,elpida_25_10_23,001,2023-10-25_16h39.30.564,Oddball_task,2022.2.5,60.11501204200864,
standard,soundFiles/1000Hz_-3dBFS_3s_44.1kHz.wav',None,1000,9,3,39,1,,,,,204.7632526999805,205.76290659999358,205.76248387998203,207.56344169998192,207.7634746999829,2.7888099826930515,None,1,,,,,,,,elpida_25_10_23,001,2023-10-25_16h39.30.564,Oddball_task,2022.2.5,60.11501204200864,
standard,soundFiles/1000Hz_-3dBFS_3s_44.1kHz.wav',None,1000,10,0,40,2,,,,,207.7634746999829,208.76382819999708,208.76297198000248,211.14600949999294,210.7629952999996,3.3703436961723465,None,1,,,,,,,,elpida_25_10_23,001,2023-10-25_16h39.30.564,Oddball_task,2022.2.5,60.11501204200864,
standard,soundFiles/1000Hz_-3dBFS_3s_44.1kHz.wav',None,1000,10,1,41,1,,,,,211.14600949999294,212.1459063999937,212.14561867999146,214.3141604999837,214.14697760000126,3.157266595118168,None,1,,,,,,,,elpida_25_10_23,001,2023-10-25_16h39.30.564,Oddball_task,2022.2.5,60.11501204200864,
standard,soundFiles/1000Hz_-3dBFS_3s_44.1kHz.wav',None,1000,10,2,42,0,,,,,214.3141604999837,215.3136414999899,215.31259367999155,216.346452400001,217.32929219998186,2.0323664885118484,None,1,,,,,,,,elpida_25_10_23,001,2023-10-25_16h39.30.564,Oddball_task,2022.2.5,60.11501204200864,
target,soundFiles/1200Hz_-3dBFS_3s_44.1kHz.wav',t,2000,10,3,43,3,,,,,217.32929219998186,218.3129093000025,218.3132988800062,220.9126534999814,220.31246669997927,3.5792992082074813,t,1,0.8865681999886874,,,,,,,elpida_25_10_23,001,2023-10-25_16h39.30.564,Oddball_task,2022.2.5,60.11501204200864,
standard,soundFiles/1000Hz_-3dBFS_3s_44.1kHz.wav',None,1000,11,0,44,0,,,,,220.9126534999814,221.91362340000342,221.91287857998395,224.34638629999245,223.9128060999792,3.4315984217065907,None,1,,,,,,,,elpida_25_10_23,001,2023-10-25_16h39.30.564,Oddball_task,2022.2.5,60.11501204200864,
target,soundFiles/1200Hz_-3dBFS_3s_44.1kHz.wav',t,2000,11,1,45,3,,,,,224.34638629999245,225.34677149998606,225.34625658000004,227.07955490000313,227.34605180000653,2.724221373629284,t,1,0.9092579999996815,,,,,,,elpida_25_10_23,001,2023-10-25_16h39.30.564,Oddball_task,2022.2.5,60.11501204200864,
standard,soundFiles/1000Hz_-3dBFS_3s_44.1kHz.wav',None,1000,11,2,46,1,,,,,227.34605180000653,228.3462884000037,228.3460804799979,231.1961719999963,230.34641399999964,3.848956893148479,None,1,,,,,,,,elpida_25_10_23,001,2023-10-25_16h39.30.564,Oddball_task,2022.2.5,60.11501204200864,
standard,soundFiles/1000Hz_-3dBFS_3s_44.1kHz.wav',None,1000,11,3,47,2,,,,,231.1961719999963,232.19665800000075,232.19714617999853,233.41340369998943,234.1966146999912,2.2107058475029104,None,1,,,,,,,,elpida_25_10_23,001,2023-10-25_16h39.30.564,Oddball_task,2022.2.5,60.11501204200864,
standard,soundFiles/1000Hz_-3dBFS_3s_44.1kHz.wav',None,1000,12,0,48,0,,,,,234.1966146999912,235.196354899992,235.19678008000483,238.00118359999033,237.19591239999863,3.7494420828420454,None,1,,,,,,,,elpida_25_10_23,001,2023-10-25_16h39.30.564,Oddball_task,2022.2.5,60.11501204200864,
standard,soundFiles/1000Hz_-3dBFS_3s_44.1kHz.wav',None,1000,12,1,49,2,,,,,238.00118359999033,238.96272769998177,238.96285827999236,240.91279659999418,240.96292130000074,2.897983864570973,None,1,,,,,,,,elpida_25_10_23,001,2023-10-25_16h39.30.564,Oddball_task,2022.2.5,60.11501204200864,
standard,soundFiles/1000Hz_-3dBFS_3s_44.1kHz.wav',None,1000,12,2,50,1,,,,,240.96292130000074,241.96359010000015,241.963303979981,244.14651219997904,243.9636809999938,3.169674439484287,None,1,,242.96279759999015,,,,,,elpida_25_10_23,001,2023-10-25_16h39.30.564,Oddball_task,2022.2.5,60.11501204200864,
target,soundFiles/1200Hz_-3dBFS_3s_44.1kHz.wav',t,2000,12,3,51,3,,,,,244.14651219997904,245.1469128000026,245.1461471799994,246.36388629997964,247.1465379000001,2.2067262801310985,t,1,0.861249300010968,,,,,,,elpida_25_10_23,001,2023-10-25_16h39.30.564,Oddball_task,2022.2.5,60.11501204200864,
standard,soundFiles/1000Hz_-3dBFS_3s_44.1kHz.wav',None,1000,13,0,52,1,,,,,247.1465379000001,248.14617110000108,248.14618887999677,249.42966520000482,250.14665599999717,2.2797033209573505,None,1,,,,,,,,elpida_25_10_23,001,2023-10-25_16h39.30.564,Oddball_task,2022.2.5,60.11501204200864,
target,soundFiles/1200Hz_-3dBFS_3s_44.1kHz.wav',t,2000,13,1,53,3,,,,,250.14665599999717,251.14617839999846,251.14668767998228,252.7465286999941,253.1465099999914,2.5904491441450874,t,1,0.8373705000267364,,,,,,,elpida_25_10_23,001,2023-10-25_16h39.30.564,Oddball_task,2022.2.5,60.11501204200864,
standard,soundFiles/1000Hz_-3dBFS_3s_44.1kHz.wav',None,1000,13,2,54,0,,,,,253.1465099999914,254.14644879999105,254.1462632799812,256.6800869999861,256.1473924999882,3.5297262127878772,None,1,,,,,,,,elpida_25_10_23,001,2023-10-25_16h39.30.564,Oddball_task,2022.2.5,60.11501204200864,
standard,soundFiles/1000Hz_-3dBFS_3s_44.1kHz.wav',None,1000,13,3,55,2,,,,,256.6800869999861,257.68025989999296,257.68042047999916,259.34695680000004,259.68111659999704,2.6641733857765844,None,1,,,,,,,,elpida_25_10_23,001,2023-10-25_16h39.30.564,Oddball_task,2022.2.5,60.11501204200864,
target,soundFiles/1200Hz_-3dBFS_3s_44.1kHz.wav',t,2000,14,0,56,3,,,,,259.68111659999704,260.68053729998064,260.6799595799821,262.0296199999866,262.680680999998,2.343481993794512,t,1,0.8231588999915402,,,,,,,elpida_25_10_23,001,2023-10-25_16h39.30.564,Oddball_task,2022.2.5,60.11501204200864,
standard,soundFiles/1000Hz_-3dBFS_3s_44.1kHz.wav',None,1000,14,1,57,2,,,,,262.680680999998,263.6797267999791,263.68006007999065,266.3298653999809,265.6796539000061,3.6439343552855954,None,1,,,,,,,,elpida_25_10_23,001,2023-10-25_16h39.30.564,Oddball_task,2022.2.5,60.11501204200864,
standard,soundFiles/1000Hz_-3dBFS_3s_44.1kHz.wav',None,1000,14,2,58,0,,,,,266.3298653999809,267.32947619998595,267.32972167999833,269.04682550000143,269.33076479999,2.7102397151067086,None,1,,,,,,,,elpida_25_10_23,001,2023-10-25_16h39.30.564,Oddball_task,2022.2.5,60.11501204200864,
standard,soundFiles/1000Hz_-3dBFS_3s_44.1kHz.wav',None,1000,14,3,59,1,,,,,269.33076479999,270.3305262000067,270.3296249799896,272.89682599998196,272.32976289998624,3.5577777288342,None,1,,,,,,,,elpida_25_10_23,001,2023-10-25_16h39.30.564,Oddball_task,2022.2.5,60.11501204200864,
standard,soundFiles/1000Hz_-3dBFS_3s_44.1kHz.wav',None,1000,15,0,60,2,,,,,272.89682599998196,273.8822215999826,273.88266037998255,276.529892999999,275.8964476999827,3.6243276620434774,None,1,,,,,,,,elpida_25_10_23,001,2023-10-25_16h39.30.564,Oddball_task,2022.2.5,60.11501204200864,
standard,soundFiles/1000Hz_-3dBFS_3s_44.1kHz.wav',None,1000,15,1,61,0,,,,,276.529892999999,277.5309462999867,277.5312384800054,278.83071449998533,279.5296335000021,2.2979471842901376,None,1,,,,,,,,elpida_25_10_23,001,2023-10-25_16h39.30.564,Oddball_task,2022.2.5,60.11501204200864,
target,soundFiles/1200Hz_-3dBFS_3s_44.1kHz.wav',t,2000,15,2,62,3,,,,,279.5296335000021,280.53098989999853,280.53106578000006,283.4295860999846,282.535867300001,3.8980723157055044,t,1,0.9016999000159558,,,,,,,elpida_25_10_23,001,2023-10-25_16h39.30.564,Oddball_task,2022.2.5,60.11501204200864,
standard,soundFiles/1000Hz_-3dBFS_3s_44.1kHz.wav',None,1000,15,3,63,1,,,,,283.4295860999846,284.4304305999831,284.4302392799873,286.8639000999974,286.4299265999871,3.433873331704147,None,1,,,,,,,,elpida_25_10_23,001,2023-10-25_16h39.30.564,Oddball_task,2022.2.5,60.11501204200864,
target,soundFiles/1200Hz_-3dBFS_3s_44.1kHz.wav',t,2000,16,0,64,3,,,,,286.8639000999974,287.86410340000293,287.86320888000773,290.13019820000045,289.8645191999967,3.2600670758546864,t,1,0.7844104999967385,,,,,,,elpida_25_10_23,001,2023-10-25_16h39.30.564,Oddball_task,2022.2.5,60.11501204200864,
standard,soundFiles/1000Hz_-3dBFS_3s_44.1kHz.wav',None,1000,16,1,65,2,,,,,290.13019820000045,291.1306098999921,291.1305184800003,293.98005849999026,293.1306723000016,3.8471784371420537,None,1,,,,,,,,elpida_25_10_23,001,2023-10-25_16h39.30.564,Oddball_task,2022.2.5,60.11501204200864,
standard,soundFiles/1000Hz_-3dBFS_3s_44.1kHz.wav',None,1000,16,2,66,0,,,,,293.98005849999026,294.9801072999835,294.97996967998915,297.4971510999894,296.9799304000044,3.5037297121869906,None,1,,,,,,,,elpida_25_10_23,001,2023-10-25_16h39.30.564,Oddball_task,2022.2.5,60.11501204200864,
standard,soundFiles/1000Hz_-3dBFS_3s_44.1kHz.wav',None,1000,16,3,67,1,,,,,297.4971510999894,298.49651120000635,298.4966358800011,301.5002029000025,300.4976386000053,3.96053248074921,None,1,,,,,,,,elpida_25_10_23,001,2023-10-25_16h39.30.564,Oddball_task,2022.2.5,60.11501204200864,
standard,soundFiles/1000Hz_-3dBFS_3s_44.1kHz.wav',None,1000,17,0,68,2,,,,,301.5002029000025,302.4639843000041,302.46365777999745,305.18147229999886,304.4636070999841,3.671101554451994,None,1,,,,,,,,elpida_25_10_23,001,2023-10-25_16h39.30.564,Oddball_task,2022.2.5,60.11501204200864,
target,soundFiles/1200Hz_-3dBFS_3s_44.1kHz.wav',t,2000,17,1,69,3,,,,,305.18147229999886,306.1800100999826,306.1803626799956,308.68043399997987,308.1811516000016,3.486568315044078,t,1,0.7815212999994401,,,,,,,elpida_25_10_23,001,2023-10-25_16h39.30.564,Oddball_task,2022.2.5,60.11501204200864,
standard,soundFiles/1000Hz_-3dBFS_3s_44.1kHz.wav',None,1000,17,2,70,1,,,,,308.68043399997987,309.68048109998927,309.6804514800024,310.8468845000025,311.6799658999953,2.1517651938245077,None,1,,,,,,,,elpida_25_10_23,001,2023-10-25_16h39.30.564,Oddball_task,2022.2.5,60.11501204200864,
standard,soundFiles/1000Hz_-3dBFS_3s_44.1kHz.wav',None,1000,17,3,71,0,,,,,311.6799658999953,312.679781999992,312.6801615800068,314.0807477000053,314.6813166999782,2.391159596712069,None,1,,,,,,,,elpida_25_10_23,001,2023-10-25_16h39.30.564,Oddball_task,2022.2.5,60.11501204200864,
target,soundFiles/1200Hz_-3dBFS_3s_44.1kHz.wav',t,2000,18,0,72,3,,,,,314.6813166999782,315.68062030000146,315.68117177998647,317.8634739999834,317.68032459999085,3.168090586705044,t,1,0.7525231000036001,,,,,,,elpida_25_10_23,001,2023-10-25_16h39.30.564,Oddball_task,2022.2.5,60.11501204200864,
standard,soundFiles/1000Hz_-3dBFS_3s_44.1kHz.wav',None,1000,18,1,73,1,,,,,317.8634739999834,318.8489833000058,318.8492602799961,321.31352339999285,320.84697280000546,3.436238345077192,None,1,,,,,,,,elpida_25_10_23,001,2023-10-25_16h39.30.564,Oddball_task,2022.2.5,60.11501204200864,
standard,soundFiles/1000Hz_-3dBFS_3s_44.1kHz.wav',None,1000,18,2,74,0,,,,,321.31352339999285,322.3133721000049,322.3133133800002,324.77982629998587,324.3131674999895,3.4583180287923967,None,1,,,,,,,,elpida_25_10_23,001,2023-10-25_16h39.30.564,Oddball_task,2022.2.5,60.11501204200864,
standard,soundFiles/1000Hz_-3dBFS_3s_44.1kHz.wav',None,1000,18,3,75,2,,,,,324.77982629998587,325.78049179998925,325.78017117999843,328.5814417999936,327.78036419997807,3.7949689639801485,None,1,,,,,,,,elpida_25_10_23,001,2023-10-25_16h39.30.564,Oddball_task,2022.2.5,60.11501204200864,
standard,soundFiles/1000Hz_-3dBFS_3s_44.1kHz.wav',None,1000,19,0,76,2,,,,,328.5814417999936,329.58036419999553,329.5807090800081,331.31389469999704,331.5804152000055,2.7225505894612603,None,1,,,,,,,,elpida_25_10_23,001,2023-10-25_16h39.30.564,Oddball_task,2022.2.5,60.11501204200864,
standard,soundFiles/1000Hz_-3dBFS_3s_44.1kHz.wav',None,1000,19,1,77,0,,,,,331.5804152000055,332.5806011999957,332.58035007998114,334.3965911999985,334.58030149998376,2.8119400580327847,None,1,,,,,,,,elpida_25_10_23,001,2023-10-25_16h39.30.564,Oddball_task,2022.2.5,60.11501204200864,
target,soundFiles/1200Hz_-3dBFS_3s_44.1kHz.wav',t,2000,19,2,78,3,,,,,334.58030149998376,335.58050589999766,335.580868680001,337.0304329999781,337.5809988999972,2.446714083088095,t,1,0.7801271000062115,336.58009579998907,,,,,,elpida_25_10_23,001,2023-10-25_16h39.30.564,Oddball_task,2022.2.5,60.11501204200864,
standard,soundFiles/1000Hz_-3dBFS_3s_44.1kHz.wav',None,1000,19,3,79,1,,,,,337.5809988999972,338.58069069997873,338.58028078000643,341.0466557999898,340.5807634999801,3.4616514486872516,None,1,,,,,,,,elpida_25_10_23,001,2023-10-25_16h39.30.564,Oddball_task,2022.2.5,60.11501204200864,
standard,soundFiles/1000Hz_-3dBFS_3s_44.1kHz.wav',None,1000,20,0,80,0,,,,,341.0466557999898,342.04662239999743,342.0463411799865,344.2473643999838,344.0477018999809,3.1866422805868098,None,1,,,,,,,,elpida_25_10_23,001,2023-10-25_16h39.30.564,Oddball_task,2022.2.5,60.11501204200864,
standard,soundFiles/1000Hz_-3dBFS_3s_44.1kHz.wav',None,1000,20,1,81,1,,,,,344.2473643999838,345.24694789998466,345.24689557999955,347.6307947000023,347.2477627999906,3.3762068306093838,None,1,,,,,,,,elpida_25_10_23,001,2023-10-25_16h39.30.564,Oddball_task,2022.2.5,60.11501204200864,
standard,soundFiles/1000Hz_-3dBFS_3s_44.1kHz.wav',None,1000,20,2,82,2,,,,,347.6307947000023,348.63035419999505,348.63028608000604,351.3472935000027,350.6304518999823,3.707235741504227,None,1,,,,,,,,elpida_25_10_23,001,2023-10-25_16h39.30.564,Oddball_task,2022.2.5,60.11501204200864,
target,soundFiles/1200Hz_-3dBFS_3s_44.1kHz.wav',t,2000,20,3,83,3,,,,,351.3472935000027,352.3473359000054,352.34770027999184,353.54767850000644,354.3474670999858,2.1878020416648805,t,1,0.8061005999916233,,,,,,,elpida_25_10_23,001,2023-10-25_16h39.30.564,Oddball_task,2022.2.5,60.11501204200864,
standard,soundFiles/1000Hz_-3dBFS_3s_44.1kHz.wav',None,1000,21,0,84,1,,,,,354.3474670999858,355.34684009998455,355.3469322799938,356.66384939997806,357.3473685999925,2.31733897140521,None,1,,,,,,,,elpida_25_10_23,001,2023-10-25_16h39.30.564,Oddball_task,2022.2.5,60.11501204200864,
standard,soundFiles/1000Hz_-3dBFS_3s_44.1kHz.wav',None,1000,21,1,85,0,,,,,357.3473685999925,358.3475015999866,358.34733237998444,360.43071659997804,360.34670399999595,3.080140199137835,None,1,,,,,,,,elpida_25_10_23,001,2023-10-25_16h39.30.564,Oddball_task,2022.2.5,60.11501204200864,
standard,soundFiles/1000Hz_-3dBFS_3s_44.1kHz.wav',None,1000,21,2,86,2,,,,,360.43071659997804,361.41481089999434,361.4143722800072,364.1812171000056,363.43067649999284,3.7418833989534295,None,1,,,,,,,,elpida_25_10_23,001,2023-10-25_16h39.30.564,Oddball_task,2022.2.5,60.11501204200864,
target,soundFiles/1200Hz_-3dBFS_3s_44.1kHz.wav',t,2000,21,3,87,3,,,,,364.1812171000056,365.18081130000064,365.1810185799841,366.947657599987,367.18168469998636,2.7550440771256,t,1,0.7811369000119157,,,,,,,elpida_25_10_23,001,2023-10-25_16h39.30.564,Oddball_task,2022.2.5,60.11501204200864,
standard,soundFiles/1000Hz_-3dBFS_3s_44.1kHz.wav',None,1000,22,0,88,0,,,,,367.18168469998636,368.18099969998,368.18067277999944,369.79753409998375,370.18135430000257,2.614444885639572,None,1,,,,,,,,elpida_25_10_23,001,2023-10-25_16h39.30.564,Oddball_task,2022.2.5,60.11501204200864,
standard,soundFiles/1000Hz_-3dBFS_3s_44.1kHz.wav',None,1000,22,1,89,1,,,,,370.18135430000257,371.1649192000041,371.16487807998783,372.9975252999866,373.1643468999828,2.8100418844627586,None,1,,,,,,,,elpida_25_10_23,001,2023-10-25_16h39.30.564,Oddball_task,2022.2.5,60.11501204200864,
standard,soundFiles/1000Hz_-3dBFS_3s_44.1kHz.wav',None,1000,22,2,90,2,,,,,373.1643468999828,374.16403699998045,374.1642713799956,375.7307970999973,376.1641338999907,2.5526468118099293,None,1,,,,,,,,elpida_25_10_23,001,2023-10-25_16h39.30.564,Oddball_task,2022.2.5,60.11501204200864,
target,soundFiles/1200Hz_-3dBFS_3s_44.1kHz.wav',t,2000,22,3,91,3,,,,,376.1641338999907,377.164723599999,377.16397347999737,378.4305056000012,379.18211789999623,2.25099764549756,t,1,0.8286840000073425,,,,,,,elpida_25_10_23,001,2023-10-25_16h39.30.564,Oddball_task,2022.2.5,60.11501204200864,
standard,soundFiles/1000Hz_-3dBFS_3s_44.1kHz.wav',None,1000,23,0,92,2,,,,,379.18211789999623,380.18067359999986,380.18135137998615,381.314275599987,382.1814955000009,2.1299571467006837,None,1,,,,,,,,elpida_25_10_23,001,2023-10-25_16h39.30.564,Oddball_task,2022.2.5,60.11501204200864,
standard,soundFiles/1000Hz_-3dBFS_3s_44.1kHz.wav',None,1000,23,1,93,0,,,,,382.1814955000009,383.1814688000013,383.18173327998375,384.581601199985,385.1807722999947,2.387066979776496,None,1,,,,,,,,elpida_25_10_23,001,2023-10-25_16h39.30.564,Oddball_task,2022.2.5,60.11501204200864,
target,soundFiles/1200Hz_-3dBFS_3s_44.1kHz.wav',t,2000,23,2,94,3,,,,,385.1807722999947,386.1809699999867,386.18083457998,387.34838369998033,388.1807242000068,2.1592887521538273,t,1,0.8762770000030287,,,,,,,elpida_25_10_23,001,2023-10-25_16h39.30.564,Oddball_task,2022.2.5,60.11501204200864,
standard,soundFiles/1000Hz_-3dBFS_3s_44.1kHz.wav',None,1000,23,3,95,1,,,,,388.1807242000068,389.1807256999891,389.180825479998,391.8474423000007,391.1807282999798,3.659478190474273,None,1,,,,,,,,elpida_25_10_23,001,2023-10-25_16h39.30.564,Oddball_task,2022.2.5,60.11501204200864,
standard,soundFiles/1000Hz_-3dBFS_3s_44.1kHz.wav',None,1000,24,0,96,1,,,,,391.8474423000007,392.8473079999967,392.8474724800035,394.3640980999917,394.8476709999959,2.512816567496073,None,1,,,,,,,,elpida_25_10_23,001,2023-10-25_16h39.30.564,Oddball_task,2022.2.5,60.11501204200864,
standard,soundFiles/1000Hz_-3dBFS_3s_44.1kHz.wav',None,1000,24,1,97,0,,,,,394.8476709999959,395.8473601999867,395.8474312799808,398.46528889998444,397.8478541999939,3.604175386007083,None,1,,,,,,,,elpida_25_10_23,001,2023-10-25_16h39.30.564,Oddball_task,2022.2.5,60.11501204200864,
target,soundFiles/1200Hz_-3dBFS_3s_44.1kHz.wav',t,2000,24,2,98,3,,,,,398.46528889998444,399.4647694999876,399.4646736799914,400.5819217999815,401.4652561999974,2.111722902032655,t,1,0.9204582000093069,,,,,,,elpida_25_10_23,001,2023-10-25_16h39.30.564,Oddball_task,2022.2.5,60.11501204200864,
standard,soundFiles/1000Hz_-3dBFS_3s_44.1kHz.wav',None,1000,24,3,99,2,,,,,401.4652561999974,402.4643348999962,402.46517037999,404.8147868999804,404.4640473999898,3.34565158602811,None,1,,,,,,,,elpida_25_10_23,001,2023-10-25_16h39.30.564,Oddball_task,2022.2.5,60.11501204200864,
standard,soundFiles/1000Hz_-3dBFS_3s_44.1kHz.wav',None,1000,25,0,100,1,,,,,404.8147868999804,405.81455599999754,405.81456547998823,407.0148886999814,407.8144456000009,2.199017145409737,None,1,,,,,,,,elpida_25_10_23,001,2023-10-25_16h39.30.564,Oddball_task,2022.2.5,60.11501204200864,
standard,soundFiles/1000Hz_-3dBFS_3s_44.1kHz.wav',None,1000,25,1,101,2,,,,,407.8144456000009,408.8146831000049,408.81495527998777,411.2643470999901,410.81430679999175,3.448042589038267,None,1,,409.81675880000694,,,,,,elpida_25_10_23,001,2023-10-25_16h39.30.564,Oddball_task,2022.2.5,60.11501204200864,
standard,soundFiles/1000Hz_-3dBFS_3s_44.1kHz.wav',None,1000,25,2,102,0,,,,,411.2643470999901,412.2644791000057,412.2641928799858,415.1483629999857,414.26432759998715,3.8746687768826207,None,1,,,,,,,,elpida_25_10_23,001,2023-10-25_16h39.30.564,Oddball_task,2022.2.5,60.11501204200864,
target,soundFiles/1200Hz_-3dBFS_3s_44.1kHz.wav',t,2000,25,3,103,3,,,,,415.1483629999857,416.1352224999864,416.1352120800002,419.1371652999951,418.147461799992,3.9453986866843564,t,1,0.9220689000212587,,,,,,,elpida_25_10_23,001,2023-10-25_16h39.30.564,Oddball_task,2022.2.5,60.11501204200864,
standard,soundFiles/1000Hz_-3dBFS_3s_44.1kHz.wav',None,1000,26,0,104,2,,,,,419.1371652999951,420.1149072999833,420.1145377799985,422.1153132999898,422.1153132999898,2.963375769453129,None,1,,,,,,,,elpida_25_10_23,001,2023-10-25_16h39.30.564,Oddball_task,2022.2.5,60.11501204200864,
standard,soundFiles/1000Hz_-3dBFS_3s_44.1kHz.wav',None,1000,26,1,105,0,,,,,422.1153132999898,423.11513829999603,423.11437798000406,425.4811071000004,425.1143974000006,3.3621676481256015,None,1,,,,,,,,elpida_25_10_23,001,2023-10-25_16h39.30.564,Oddball_task,2022.2.5,60.11501204200864,
standard,soundFiles/1000Hz_-3dBFS_3s_44.1kHz.wav',None,1000,26,2,106,1,,,,,425.4811071000004,426.48083759998553,426.4816564799985,427.9318052000017,428.48175889998674,2.4500902267489115,None,1,,,,,,,,elpida_25_10_23,001,2023-10-25_16h39.30.564,Oddball_task,2022.2.5,60.11501204200864,
target,soundFiles/1200Hz_-3dBFS_3s_44.1kHz.wav',t,2000,26,3,107,3,,,,,428.48175889998674,429.48119900000165,429.4808991799946,431.634395400004,431.52055570000084,3.102501331494126,t,1,0.8722073000099044,,,,,,,elpida_25_10_23,001,2023-10-25_16h39.30.564,Oddball_task,2022.2.5,60.11501204200864,
target,soundFiles/1200Hz_-3dBFS_3s_44.1kHz.wav',t,2000,27,0,108,3,,,,,431.634395400004,432.61483269999735,432.6142746800033,434.9979577999911,434.61513879999984,3.36208757528384,t,1,1.0188437000033446,433.61559030000353,,,,,,elpida_25_10_23,001,2023-10-25_16h39.30.564,Oddball_task,2022.2.5,60.11501204200864,
standard,soundFiles/1000Hz_-3dBFS_3s_44.1kHz.wav',None,1000,27,1,109,0,,,,,434.9979577999911,436.01986440000474,436.00366747999215,437.73091290000593,438.03091689999565,2.722614698646157,None,1,,,,,,,,elpida_25_10_23,001,2023-10-25_16h39.30.564,Oddball_task,2022.2.5,60.11501204200864,
standard,soundFiles/1000Hz_-3dBFS_3s_44.1kHz.wav',None,1000,27,2,110,1,,,,,438.03091689999565,439.03211070000543,439.03128697999637,440.58113459998276,441.0494092000008,2.5420938049192894,None,1,,,,,,,,elpida_25_10_23,001,2023-10-25_16h39.30.564,Oddball_task,2022.2.5,60.11501204200864,
standard,soundFiles/1000Hz_-3dBFS_3s_44.1kHz.wav',None,1000,27,3,111,2,,,,,441.0494092000008,442.03158049998456,442.031276780006,444.39748059998965,444.03094870000496,3.3369665267098814,None,1,,,,,,,,elpida_25_10_23,001,2023-10-25_16h39.30.564,Oddball_task,2022.2.5,60.11501204200864,
target,soundFiles/1200Hz_-3dBFS_3s_44.1kHz.wav',t,2000,28,0,112,3,,,,,444.39748059998965,445.39826669998,445.3983018799918,446.88154669999494,447.3972208999912,2.4767382409850365,t,1,0.8048759000084829,,,,,,,elpida_25_10_23,001,2023-10-25_16h39.30.564,Oddball_task,2022.2.5,60.11501204200864,
standard,soundFiles/1000Hz_-3dBFS_3s_44.1kHz.wav',None,1000,28,1,113,2,,,,,447.3972208999912,448.3984369999962,448.39810557998135,449.9986560999823,450.39795169999707,2.5933444439157314,None,1,,,,,,,,elpida_25_10_23,001,2023-10-25_16h39.30.564,Oddball_task,2022.2.5,60.11501204200864,
standard,soundFiles/1000Hz_-3dBFS_3s_44.1kHz.wav',None,1000,28,2,114,0,,,,,450.39795169999707,451.3978830999986,451.39736927999184,453.8647274999821,453.40266779999365,3.462120829700277,None,1,,,,,,,,elpida_25_10_23,001,2023-10-25_16h39.30.564,Oddball_task,2022.2.5,60.11501204200864,
standard,soundFiles/1000Hz_-3dBFS_3s_44.1kHz.wav',None,1000,28,3,115,1,,,,,453.8647274999821,454.86585519998334,454.8656869799888,456.131888599979,456.8808887999912,2.261491239513539,None,1,,,,,,,,elpida_25_10_23,001,2023-10-25_16h39.30.564,Oddball_task,2022.2.5,60.11501204200864,
standard,soundFiles/1000Hz_-3dBFS_3s_44.1kHz.wav',None,1000,29,0,116,1,,,,,456.8808887999912,457.881785399979,457.8820910799841,460.0646157999872,459.8814856999961,3.1837975293445937,None,1,,,,,,,,elpida_25_10_23,001,2023-10-25_16h39.30.564,Oddball_task,2022.2.5,60.11501204200864,
standard,soundFiles/1000Hz_-3dBFS_3s_44.1kHz.wav',None,1000,29,1,117,2,,,,,460.0646157999872,461.0489691999974,461.0486797799822,463.87025199999334,463.0488303999882,3.754888524923626,None,1,,,,,,,,elpida_25_10_23,001,2023-10-25_16h39.30.564,Oddball_task,2022.2.5,60.11501204200864,
target,soundFiles/1200Hz_-3dBFS_3s_44.1kHz.wav',t,2000,29,2,118,3,,,,,463.87025199999334,464.8483074999822,464.84843637997983,466.6982391999918,466.848583199986,2.8272114051148525,t,1,0.8973620000178926,,,,,,,elpida_25_10_23,001,2023-10-25_16h39.30.564,Oddball_task,2022.2.5,60.11501204200864,
standard,soundFiles/1000Hz_-3dBFS_3s_44.1kHz.wav',None,1000,29,3,119,0,,,,,466.848583199986,467.84806279998156,467.8494707799982,470.2656178000034,469.8486761999957,3.4167197022594538,None,1,,,,,,,,elpida_25_10_23,001,2023-10-25_16h39.30.564,Oddball_task,2022.2.5,60.11501204200864,
standard,soundFiles/1000Hz_-3dBFS_3s_44.1kHz.wav',None,1000,30,0,120,2,,,,,470.2656178000034,471.26561249999213,471.26547287998255,473.58235089998925,473.26553720000084,3.3136781325666513,None,1,,,,,,,,elpida_25_10_23,001,2023-10-25_16h39.30.564,Oddball_task,2022.2.5,60.11501204200864,
standard,soundFiles/1000Hz_-3dBFS_3s_44.1kHz.wav',None,1000,30,1,121,1,,,,,473.58235089998925,474.5820471000043,474.58192547998624,475.7476528999978,476.58176259999163,2.1535682747675846,None,1,,475.5813536999922,,,,,,elpida_25_10_23,001,2023-10-25_16h39.30.564,Oddball_task,2022.2.5,60.11501204200864,
standard,soundFiles/1000Hz_-3dBFS_3s_44.1kHz.wav',None,1000,30,2,122,0,,,,,476.58176259999163,477.58224299998255,477.58131258000503,478.83156309998594,479.5825067999831,2.2344080482517388,None,1,,,,,,,,elpida_25_10_23,001,2023-10-25_16h39.30.564,Oddball_task,2022.2.5,60.11501204200864,
target,soundFiles/1200Hz_-3dBFS_3s_44.1kHz.wav',t,2000,30,3,123,3,,,,,479.5825067999831,480.582377099985,480.582678279985,481.8651416999928,482.58254420000594,2.267275293453527,t,1,0.8269663999963086,,,,,,,elpida_25_10_23,001,2023-10-25_16h39.30.564,Oddball_task,2022.2.5,60.11501204200864,
standard,soundFiles/1000Hz_-3dBFS_3s_44.1kHz.wav',None,1000,31,0,124,1,,,,,482.58254420000594,483.5815220999939,483.58200098000816,486.564959899988,485.58194809997804,3.979617872666151,None,1,,,,,,,,elpida_25_10_23,001,2023-10-25_16h39.30.564,Oddball_task,2022.2.5,60.11501204200864,
standard,soundFiles/1000Hz_-3dBFS_3s_44.1kHz.wav',None,1000,31,1,125,2,,,,,486.564959899988,487.5492341000063,487.5498714800051,488.9152857000008,489.5480147000053,2.342721729447252,None,1,,,,,,,,elpida_25_10_23,001,2023-10-25_16h39.30.564,Oddball_task,2022.2.5,60.11501204200864,
standard,soundFiles/1000Hz_-3dBFS_3s_44.1kHz.wav',None,1000,31,2,126,0,,,,,489.5480147000053,490.53731289997813,490.53550738000195,491.7648409999965,492.54837370000314,2.217723271315117,None,1,,,,,,,,elpida_25_10_23,001,2023-10-25_16h39.30.564,Oddball_task,2022.2.5,60.11501204200864,
target,soundFiles/1200Hz_-3dBFS_3s_44.1kHz.wav',t,2000,31,3,127,3,,,,,492.54837370000314,493.54858449997846,493.547986880003,495.7998598999984,495.5482514000032,3.2415009917614883,t,1,0.773877600004198,494.54976019999594,,,,,,elpida_25_10_23,001,2023-10-25_16h39.30.564,Oddball_task,2022.2.5,60.11501204200864,
target,soundFiles/1200Hz_-3dBFS_3s_44.1kHz.wav',t,2000,32,0,128,3,,,,,495.7998598999984,496.7993448000052,496.798585779994,499.5816968999861,498.8160629000049,3.7664166102967096,t,1,1.2028149999969173,,,,,,,elpida_25_10_23,001,2023-10-25_16h39.30.564,Oddball_task,2022.2.5,60.11501204200864,
standard,soundFiles/1000Hz_-3dBFS_3s_44.1kHz.wav',None,1000,32,1,129,1,,,,,499.5816968999861,500.58130669998354,500.58103157998994,502.2979752999963,502.58238999999594,2.700555900181099,None,1,,,,,,,,elpida_25_10_23,001,2023-10-25_16h39.30.564,Oddball_task,2022.2.5,60.11501204200864,
standard,soundFiles/1000Hz_-3dBFS_3s_44.1kHz.wav',None,1000,32,2,130,2,,,,,502.58238999999594,503.58172529999865,503.5815328799945,506.2992774999875,505.5815248999861,3.706617036380382,None,1,,,,,,,,elpida_25_10_23,001,2023-10-25_16h39.30.564,Oddball_task,2022.2.5,60.11501204200864,
standard,soundFiles/1000Hz_-3dBFS_3s_44.1kHz.wav',None,1000,32,3,131,0,,,,,506.2992774999875,507.29786369999056,507.29772057998343,509.09825280000223,509.299827299983,2.7974725619042546,None,1,,,,,,,,elpida_25_10_23,001,2023-10-25_16h39.30.564,Oddball_task,2022.2.5,60.11501204200864,
target,soundFiles/1200Hz_-3dBFS_3s_44.1kHz.wav',t,2000,33,0,132,3,,,,,509.299827299983,510.2987734999915,510.29955547998543,512.049337799981,512.2997003000055,2.745060456967618,t,1,0.7915248999779578,,,,,,,elpida_25_10_23,001,2023-10-25_16h39.30.564,Oddball_task,2022.2.5,60.11501204200864,
standard,soundFiles/1000Hz_-3dBFS_3s_44.1kHz.wav',None,1000,33,1,133,1,,,,,512.2997003000055,513.2979091999878,513.2979025800014,515.5319993000012,515.2988127999997,3.231818567402982,None,1,,,,,,,,elpida_25_10_23,001,2023-10-25_16h39.30.564,Oddball_task,2022.2.5,60.11501204200864,
standard,soundFiles/1000Hz_-3dBFS_3s_44.1kHz.wav',None,1000,33,2,134,0,,,,,515.5319993000012,516.5319631999882,516.5321864800062,518.8158761999803,518.5336118999985,3.2662725572325906,None,1,,,,,,,,elpida_25_10_23,001,2023-10-25_16h39.30.564,Oddball_task,2022.2.5,60.11501204200864,
standard,soundFiles/1000Hz_-3dBFS_3s_44.1kHz.wav',None,1000,33,3,135,2,,,,,518.8158761999803,519.79848149998,519.798547679995,521.4315141999978,521.799675599992,2.614924322400217,None,1,,,,,,,,elpida_25_10_23,001,2023-10-25_16h39.30.564,Oddball_task,2022.2.5,60.11501204200864,
standard,soundFiles/1000Hz_-3dBFS_3s_44.1kHz.wav',None,1000,34,0,136,2,,,,,521.799675599992,522.808996799984,522.787008579995,524.9013401999837,524.8169826999947,3.097234915521759,None,1,,,,,,,,elpida_25_10_23,001,2023-10-25_16h39.30.564,Oddball_task,2022.2.5,60.11501204200864,
standard,soundFiles/1000Hz_-3dBFS_3s_44.1kHz.wav',None,1000,34,1,137,0,,,,,524.9013401999837,525.898701099999,525.8988065799931,528.3987250000064,527.8992184999806,3.4884959216772495,None,1,,526.898589599994,,,,,,elpida_25_10_23,001,2023-10-25_16h39.30.564,Oddball_task,2022.2.5,60.11501204200864,
target,soundFiles/1200Hz_-3dBFS_3s_44.1kHz.wav',t,2000,34,2,138,3,,,,,528.3987250000064,529.3991807999846,529.3988085800083,530.4984529000067,531.3988592999813,2.0929468841927656,t,1,0.8031304999894928,,,,,,,elpida_25_10_23,001,2023-10-25_16h39.30.564,Oddball_task,2022.2.5,60.11501204200864,
standard,soundFiles/1000Hz_-3dBFS_3s_44.1kHz.wav',None,1000,34,3,139,1,,,,,531.3988592999813,532.3989556999877,532.3987540800008,533.9832605999836,534.4002294999955,2.578976623367325,None,1,,,,,,,,elpida_25_10_23,001,2023-10-25_16h39.30.564,Oddball_task,2022.2.5,60.11501204200864,
standard,soundFiles/1000Hz_-3dBFS_3s_44.1kHz.wav',None,1000,35,0,140,1,,,,,534.4002294999955,535.398947699985,535.3982057799876,537.1326649999828,537.3989172999864,2.720762590147024,None,1,,,,,,,,elpida_25_10_23,001,2023-10-25_16h39.30.564,Oddball_task,2022.2.5,60.11501204200864,
target,soundFiles/1200Hz_-3dBFS_3s_44.1kHz.wav',t,2000,35,1,141,3,,,,,537.3989172999864,538.3828829999838,538.3827337799885,541.2656590999977,540.3825969999889,3.852437821511838,t,1,0.7876073000079487,,,,,,,elpida_25_10_23,001,2023-10-25_16h39.30.564,Oddball_task,2022.2.5,60.11501204200864,
standard,soundFiles/1000Hz_-3dBFS_3s_44.1kHz.wav',None,1000,35,2,142,0,,,,,541.2656590999977,542.2664295999857,542.2661030800082,544.2484989999793,544.2825085999793,2.979606392534044,None,1,,,,,,,,elpida_25_10_23,001,2023-10-25_16h39.30.564,Oddball_task,2022.2.5,60.11501204200864,
standard,soundFiles/1000Hz_-3dBFS_3s_44.1kHz.wav',None,1000,35,3,143,2,,,,,544.2825085999793,545.2819119000051,545.281927079981,546.5654141999839,547.2816657999938,2.2677025017591337,None,1,,,,,,,,elpida_25_10_23,001,2023-10-25_16h39.30.564,Oddball_task,2022.2.5,60.11501204200864,
standard,soundFiles/1000Hz_-3dBFS_3s_44.1kHz.wav',None,1000,36,0,144,2,,,,,547.2816657999938,548.2812058999843,548.2812515799887,550.5326768999803,550.2820551999903,3.2410075392598703,None,1,,,,,,,,elpida_25_10_23,001,2023-10-25_16h39.30.564,Oddball_task,2022.2.5,60.11501204200864,
standard,soundFiles/1000Hz_-3dBFS_3s_44.1kHz.wav',None,1000,36,1,145,1,,,,,550.5326768999803,551.5334058000008,551.533315979992,553.8485571999918,553.5489475999784,3.3105124038155926,None,1,,,,,,,,elpida_25_10_23,001,2023-10-25_16h39.30.564,Oddball_task,2022.2.5,60.11501204200864,
standard,soundFiles/1000Hz_-3dBFS_3s_44.1kHz.wav',None,1000,36,2,146,0,,,,,553.8485571999918,554.8491895000043,554.849490780005,556.7660056999885,556.8487359999854,2.910454205633072,None,1,,,,,,,,elpida_25_10_23,001,2023-10-25_16h39.30.564,Oddball_task,2022.2.5,60.11501204200864,
target,soundFiles/1200Hz_-3dBFS_3s_44.1kHz.wav',t,2000,36,3,147,3,,,,,556.8487359999854,557.8491478999786,557.8492839800019,559.0662666999851,559.8490869999805,2.21281091597875,t,1,0.8410462000174448,,,,,,,elpida_25_10_23,001,2023-10-25_16h39.30.564,Oddball_task,2022.2.5,60.11501204200864,
standard,soundFiles/1000Hz_-3dBFS_3s_44.1kHz.wav',None,1000,37,0,148,2,,,,,559.8490869999805,560.8374814999988,560.83670617998,563.8494964999845,562.849007199984,3.9864789642284344,None,1,,,,,,,,elpida_25_10_23,001,2023-10-25_16h39.30.564,Oddball_task,2022.2.5,60.11501204200864,
standard,soundFiles/1000Hz_-3dBFS_3s_44.1kHz.wav',None,1000,37,1,149,0,,,,,563.8494964999845,564.8508092999982,564.8516595799883,566.1656064999988,566.865246500005,2.3064301496680644,None,1,,,,,,,,elpida_25_10_23,001,2023-10-25_16h39.30.564,Oddball_task,2022.2.5,60.11501204200864,
target,soundFiles/1200Hz_-3dBFS_3s_44.1kHz.wav',t,2000,37,2,150,3,,,,,566.865246500005,567.8668326000043,567.8657489799953,569.9664698999841,569.8656609999889,3.085889941669853,t,1,0.9432605000038166,,,,,,,elpida_25_10_23,001,2023-10-25_16h39.30.564,Oddball_task,2022.2.5,60.11501204200864,
standard,soundFiles/1000Hz_-3dBFS_3s_44.1kHz.wav',None,1000,37,3,151,1,,,,,569.9664698999841,570.965716799983,570.965524380008,573.916607399995,572.966465000005,3.9276232590824502,None,1,,,,,,,,elpida_25_10_23,001,2023-10-25_16h39.30.564,Oddball_task,2022.2.5,60.11501204200864,
standard,soundFiles/1000Hz_-3dBFS_3s_44.1kHz.wav',None,1000,38,0,152,0,,,,,573.916607399995,574.8994700000039,574.898876680003,577.7994805999915,576.8993005999946,3.8678665922312225,None,1,,,,,,,,elpida_25_10_23,001,2023-10-25_16h39.30.564,Oddball_task,2022.2.5,60.11501204200864,
standard,soundFiles/1000Hz_-3dBFS_3s_44.1kHz.wav',None,1000,38,1,153,1,,,,,577.7994805999915,578.7991750999936,578.7994603799889,580.9003696999862,580.7998534999788,3.0830589777942183,None,1,,,,,,,,elpida_25_10_23,001,2023-10-25_16h39.30.564,Oddball_task,2022.2.5,60.11501204200864,
target,soundFiles/1200Hz_-3dBFS_3s_44.1kHz.wav',t,2000,38,2,154,3,,,,,580.9003696999862,581.882703899988,581.8819549799955,583.7319244999962,583.882827399997,2.820626987350345,t,1,0.7764306000026409,,,,,,,elpida_25_10_23,001,2023-10-25_16h39.30.564,Oddball_task,2022.2.5,60.11501204200864,
standard,soundFiles/1000Hz_-3dBFS_3s_44.1kHz.wav',None,1000,38,3,155,2,,,,,583.882827399997,584.871658899996,584.871343279985,587.2496444999997,586.8824403999897,3.354083325298859,None,1,,,,,,,,elpida_25_10_23,001,2023-10-25_16h39.30.564,Oddball_task,2022.2.5,60.11501204200864,
standard,soundFiles/1000Hz_-3dBFS_3s_44.1kHz.wav',None,1000,39,0,156,0,,,,,587.2496444999997,588.2490755000035,588.2488231799798,589.9821491999901,590.2492608999892,2.7249150100973605,None,1,,,,,,,,elpida_25_10_23,001,2023-10-25_16h39.30.564,Oddball_task,2022.2.5,60.11501204200864,
standard,soundFiles/1000Hz_-3dBFS_3s_44.1kHz.wav',None,1000,39,1,157,2,,,,,590.2492608999892,591.2493322999799,591.2492517799838,592.8494521999964,593.2702389000042,2.5939694636649095,None,1,,,,,,,,elpida_25_10_23,001,2023-10-25_16h39.30.564,Oddball_task,2022.2.5,60.11501204200864,
target,soundFiles/1200Hz_-3dBFS_3s_44.1kHz.wav',t,2000,39,2,158,3,,,,,593.2702389000042,594.2488861999882,594.2497607799887,595.8501986000047,596.249633200001,2.5770432061654622,t,1,0.8268089999910444,595.2497652999882,,,,,,elpida_25_10_23,001,2023-10-25_16h39.30.564,Oddball_task,2022.2.5,60.11501204200864,
standard,soundFiles/1000Hz_-3dBFS_3s_44.1kHz.wav',None,1000,39,3,159,1,,,,,596.249633200001,597.2496358999924,597.2484722799854,598.3826044999878,599.2511700000032,2.133659376181786,None,1,,,,,,,,elpida_25_10_23,001,2023-10-25_16h39.30.564,Oddball_task,2022.2.5,60.11501204200864,
standard,soundFiles/1000Hz_-3dBFS_3s_44.1kHz.wav',None,1000,40,0,160,1,,,,,599.2511700000032,600.2490284999949,600.2488008799846,601.4324023999798,602.2492915999901,2.1789578286841715,None,1,,,,,,,,elpida_25_10_23,001,2023-10-25_16h39.30.564,Oddball_task,2022.2.5,60.11501204200864,
target,soundFiles/1200Hz_-3dBFS_3s_44.1kHz.wav',t,2000,40,1,161,3,,,,,602.2492915999901,603.249115899991,603.2491030799865,604.6157292999851,605.249063700001,2.352730205225292,t,1,0.7692896000226028,,,,,,,elpida_25_10_23,001,2023-10-25_16h39.30.564,Oddball_task,2022.2.5,60.11501204200864,
standard,soundFiles/1000Hz_-3dBFS_3s_44.1kHz.wav',None,1000,40,2,162,2,,,,,605.249063700001,606.2489089999872,606.2488842799794,607.916127799981,608.2490311999863,2.6606715024874283,None,1,,,,,,,,elpida_25_10_23,001,2023-10-25_16h39.30.564,Oddball_task,2022.2.5,60.11501204200864,
standard,soundFiles/1000Hz_-3dBFS_3s_44.1kHz.wav',None,1000,40,3,163,0,,,,,608.2490311999863,609.2364611999947,609.2341055799916,611.2659455999965,611.2493889000034,3.0023597157256265,None,1,,,,,,,,elpida_25_10_23,001,2023-10-25_16h39.30.564,Oddball_task,2022.2.5,60.11501204200864,
standard,soundFiles/1000Hz_-3dBFS_3s_44.1kHz.wav',None,1000,41,0,164,0,,,,,611.2659455999965,612.2660089999845,612.2652301799972,613.5324427000014,614.2658264999918,2.260187188493049,None,1,,613.2655098999967,,,,,,elpida_25_10_23,001,2023-10-25_16h39.30.564,Oddball_task,2022.2.5,60.11501204200864,
standard,soundFiles/1000Hz_-3dBFS_3s_44.1kHz.wav',None,1000,41,1,165,1,,,,,614.2658264999918,615.2662449000054,615.2659628799884,617.9669822999858,617.2657307999907,3.6903769339999126,None,1,,,,,,,,elpida_25_10_23,001,2023-10-25_16h39.30.564,Oddball_task,2022.2.5,60.11501204200864,
target,soundFiles/1200Hz_-3dBFS_3s_44.1kHz.wav',t,2000,41,2,166,3,,,,,617.9669822999858,618.9660792000068,618.9659382799873,620.4329012999951,620.9653626999934,2.460176305550772,t,1,0.7012164999905508,,,,,,,elpida_25_10_23,001,2023-10-25_16h39.30.564,Oddball_task,2022.2.5,60.11501204200864,
standard,soundFiles/1000Hz_-3dBFS_3s_44.1kHz.wav',None,1000,41,3,167,2,,,,,620.9653626999934,621.9659118999843,621.965572879999,623.6661220999958,623.9663369999907,2.6905208309387993,None,1,,,,,,,,elpida_25_10_23,001,2023-10-25_16h39.30.564,Oddball_task,2022.2.5,60.11501204200864,
target,soundFiles/1200Hz_-3dBFS_3s_44.1kHz.wav',t,2000,42,0,168,3,,,,,623.9663369999907,624.9660590999993,624.9660963799979,627.0490921000019,626.9658399999898,3.077792061890105,t,1,0.8693481999798678,,,,,,,elpida_25_10_23,001,2023-10-25_16h39.30.564,Oddball_task,2022.2.5,60.11501204200864,
standard,soundFiles/1000Hz_-3dBFS_3s_44.1kHz.wav',None,1000,42,1,169,0,,,,,627.0490921000019,628.0496563999914,628.0495565799938,630.0662293999922,630.0493869000056,3.0176352756770797,None,1,,,,,,,,elpida_25_10_23,001,2023-10-25_16h39.30.564,Oddball_task,2022.2.5,60.11501204200864,
standard,soundFiles/1000Hz_-3dBFS_3s_44.1kHz.wav',None,1000,42,2,170,2,,,,,630.0662293999922,631.0672824000067,631.0663357799931,633.4657779999834,633.0835068000015,3.393558517754299,None,1,,,,,,,,elpida_25_10_23,001,2023-10-25_16h39.30.564,Oddball_task,2022.2.5,60.11501204200864,
standard,soundFiles/1000Hz_-3dBFS_3s_44.1kHz.wav',None,1000,42,3,171,1,,,,,633.4657779999834,634.4661745000049,634.4671270799881,637.198960699985,636.4659722999786,3.7186822453585684,None,1,,,,,,,,elpida_25_10_23,001,2023-10-25_16h39.30.564,Oddball_task,2022.2.5,60.11501204200864,
standard,soundFiles/1000Hz_-3dBFS_3s_44.1kHz.wav',None,1000,43,0,172,2,,,,,637.198960699985,638.1988800999825,638.1987390799914,640.9846838999947,640.2002391999995,3.7721585727902953,None,1,,,,,,,,elpida_25_10_23,001,2023-10-25_16h39.30.564,Oddball_task,2022.2.5,60.11501204200864,
standard,soundFiles/1000Hz_-3dBFS_3s_44.1kHz.wav',None,1000,43,1,173,1,,,,,640.9846838999947,641.984096500004,641.9830037799838,644.6161477999995,643.9998169000028,3.621036243679397,None,1,,,,,,,,elpida_25_10_23,001,2023-10-25_16h39.30.564,Oddball_task,2022.2.5,60.11501204200864,
standard,soundFiles/1000Hz_-3dBFS_3s_44.1kHz.wav',None,1000,43,2,174,0,,,,,644.6161477999995,645.6161667999986,645.616321879992,647.8998561000044,647.616454300005,3.2827201284517376,None,1,,646.6165949999995,,,,,,elpida_25_10_23,001,2023-10-25_16h39.30.564,Oddball_task,2022.2.5,60.11501204200864,
target,soundFiles/1200Hz_-3dBFS_3s_44.1kHz.wav',t,2000,43,3,175,3,,,,,647.8998561000044,648.8997914000065,648.8997947799799,650.9663259999943,650.9006896999781,3.052556872656202,t,1,0.703518800000893,,,,,,,elpida_25_10_23,001,2023-10-25_16h39.30.564,Oddball_task,2022.2.5,60.11501204200864,
standard,soundFiles/1000Hz_-3dBFS_3s_44.1kHz.wav',None,1000,44,0,176,2,,,,,650.9663259999943,651.966291699995,651.9670457799803,653.4328383999818,653.9660122999921,2.466825813827484,None,1,,,,,,,,elpida_25_10_23,001,2023-10-25_16h39.30.564,Oddball_task,2022.2.5,60.11501204200864,
standard,soundFiles/1000Hz_-3dBFS_3s_44.1kHz.wav',None,1000,44,1,177,1,,,,,653.9660122999921,654.9666342999844,654.9662884800055,656.3006774999958,656.9659256000014,2.3187670400496003,None,1,,,,,,,,elpida_25_10_23,001,2023-10-25_16h39.30.564,Oddball_task,2022.2.5,60.11501204200864,
standard,soundFiles/1000Hz_-3dBFS_3s_44.1kHz.wav',None,1000,44,2,178,0,,,,,656.9659256000014,657.9658168999886,657.9660883799952,659.9827843999956,659.9664993000042,3.0177370917987383,None,1,,,,,,,,elpida_25_10_23,001,2023-10-25_16h39.30.564,Oddball_task,2022.2.5,60.11501204200864,
target,soundFiles/1200Hz_-3dBFS_3s_44.1kHz.wav',t,2000,44,3,179,3,,,,,659.9827843999956,660.9831181000045,660.9833517799852,663.6830783000041,662.9825474999961,3.68702837816424,t,1,0.7804642999835778,,,,,,,elpida_25_10_23,001,2023-10-25_16h39.30.564,Oddball_task,2022.2.5,60.11501204200864,
standard,soundFiles/1000Hz_-3dBFS_3s_44.1kHz.wav',None,1000,45,0,180,1,,,,,663.6830783000041,664.6839129999862,664.6824791799881,666.3998715000052,666.6826644999965,2.71266458056773,None,1,,,,,,,,elpida_25_10_23,001,2023-10-25_16h39.30.564,Oddball_task,2022.2.5,60.11501204200864,
standard,soundFiles/1000Hz_-3dBFS_3s_44.1kHz.wav',None,1000,45,1,181,2,,,,,666.6826644999965,667.6838068999932,667.682257479988,670.3835924000014,669.6829911999812,3.6864013228815833,None,1,,,,,,,,elpida_25_10_23,001,2023-10-25_16h39.30.564,Oddball_task,2022.2.5,60.11501204200864,
standard,soundFiles/1000Hz_-3dBFS_3s_44.1kHz.wav',None,1000,45,2,182,0,,,,,670.3835924000014,671.3833268999879,671.3833329799818,673.0005933000066,673.4222696999786,2.606929845302379,None,1,,,,,,,,elpida_25_10_23,001,2023-10-25_16h39.30.564,Oddball_task,2022.2.5,60.11501204200864,
target,soundFiles/1200Hz_-3dBFS_3s_44.1kHz.wav',t,2000,45,3,183,3,,,,,673.4222696999786,674.3831043999817,674.3830682800035,676.8328119999787,676.3832000999828,3.402662779462461,t,1,0.7561312000034377,,,,,,,elpida_25_10_23,001,2023-10-25_16h39.30.564,Oddball_task,2022.2.5,60.11501204200864,
standard,soundFiles/1000Hz_-3dBFS_3s_44.1kHz.wav',None,1000,46,0,184,2,,,,,676.8328119999787,677.8332670999807,677.8332666799834,680.0829997999826,679.8329378000053,3.250941400892371,None,1,,,,,,,,elpida_25_10_23,001,2023-10-25_16h39.30.564,Oddball_task,2022.2.5,60.11501204200864,
target,soundFiles/1200Hz_-3dBFS_3s_44.1kHz.wav',t,2000,46,1,185,3,,,,,680.0829997999826,681.0836241999932,681.0832175799878,682.9167340999993,683.0831515000027,2.82103745633266,t,1,0.8073165000241715,,,,,,,elpida_25_10_23,001,2023-10-25_16h39.30.564,Oddball_task,2022.2.5,60.11501204200864,
standard,soundFiles/1000Hz_-3dBFS_3s_44.1kHz.wav',None,1000,46,2,186,1,,,,,683.0831515000027,684.0827099999879,684.0827141799964,686.5498632999952,686.083244599984,3.451695480022467,None,1,,,,,,,,elpida_25_10_23,001,2023-10-25_16h39.30.564,Oddball_task,2022.2.5,60.11501204200864,
standard,soundFiles/1000Hz_-3dBFS_3s_44.1kHz.wav',None,1000,46,3,187,0,,,,,686.5498632999952,687.5497714999947,687.5500101799844,690.3376158000028,689.5512701999978,3.7455262741762336,None,1,,688.5505429999903,,,,,,elpida_25_10_23,001,2023-10-25_16h39.30.564,Oddball_task,2022.2.5,60.11501204200864,
target,soundFiles/1200Hz_-3dBFS_3s_44.1kHz.wav',t,2000,47,0,188,3,,,,,690.3376158000028,691.2999031999789,691.3007980799885,693.9503229999973,693.2995675999846,3.6067585488801335,t,1,0.8958911999943666,,,,,,,elpida_25_10_23,001,2023-10-25_16h39.30.564,Oddball_task,2022.2.5,60.11501204200864,
standard,soundFiles/1000Hz_-3dBFS_3s_44.1kHz.wav',None,1000,47,1,189,0,,,,,693.9503229999973,694.9506166999927,694.950108680001,696.81651959999,696.9503777000064,2.8547783739533634,None,1,,,,,,,,elpida_25_10_23,001,2023-10-25_16h39.30.564,Oddball_task,2022.2.5,60.11501204200864,
standard,soundFiles/1000Hz_-3dBFS_3s_44.1kHz.wav',None,1000,47,2,190,2,,,,,696.9503777000064,697.9731284999871,697.955253580003,699.9167161999794,699.983464799996,2.965568885492431,None,1,,,,,,,,elpida_25_10_23,001,2023-10-25_16h39.30.564,Oddball_task,2022.2.5,60.11501204200864,
standard,soundFiles/1000Hz_-3dBFS_3s_44.1kHz.wav',None,1000,47,3,191,1,,,,,699.983464799996,700.9838470999966,700.9835908800014,702.3508920999884,702.9835501000052,2.3617568459451395,None,1,,,,,,,,elpida_25_10_23,001,2023-10-25_16h39.30.564,Oddball_task,2022.2.5,60.11501204200864,
standard,soundFiles/1000Hz_-3dBFS_3s_44.1kHz.wav',None,1000,48,0,192,0,,,,,702.9835501000052,703.9673714999808,703.96701647999,705.450121300004,705.9666722999827,2.463242592447491,None,1,,,,,,,,elpida_25_10_23,001,2023-10-25_16h39.30.564,Oddball_task,2022.2.5,60.11501204200864,
standard,soundFiles/1000Hz_-3dBFS_3s_44.1kHz.wav',None,1000,48,1,193,2,,,,,705.9666722999827,706.9667366000067,706.9667453799921,709.2001252000045,708.9668964000011,3.2277307791171674,None,1,,,,,,,,elpida_25_10_23,001,2023-10-25_16h39.30.564,Oddball_task,2022.2.5,60.11501204200864,
target,soundFiles/1200Hz_-3dBFS_3s_44.1kHz.wav',t,2000,48,2,194,3,,,,,709.2001252000045,710.2000780999952,710.2000582799956,712.5663226000033,712.2000539999863,3.3618044255472346,t,1,0.8999745000037365,,,,,,,elpida_25_10_23,001,2023-10-25_16h39.30.564,Oddball_task,2022.2.5,60.11501204200864,
standard,soundFiles/1000Hz_-3dBFS_3s_44.1kHz.wav',None,1000,48,3,195,1,,,,,712.5663226000033,713.5673135999823,713.5670357799972,715.5998368999863,715.5664632999978,3.0199908372120423,None,1,,,,,,,,elpida_25_10_23,001,2023-10-25_16h39.30.564,Oddball_task,2022.2.5,60.11501204200864,
target,soundFiles/1200Hz_-3dBFS_3s_44.1kHz.wav',t,2000,49,0,196,3,,,,,715.5998368999863,716.5999478999875,716.6005296799995,718.4666752000048,718.5997328999802,2.8542306003705793,t,1,0.8273120000085328,,,,,,,elpida_25_10_23,001,2023-10-25_16h39.30.564,Oddball_task,2022.2.5,60.11501204200864,
standard,soundFiles/1000Hz_-3dBFS_3s_44.1kHz.wav',None,1000,49,1,197,1,,,,,718.5997328999802,719.6012132999895,719.6003809800022,721.5336666999792,721.6167864000017,2.9210796386773277,None,1,,,,,,,,elpida_25_10_23,001,2023-10-25_16h39.30.564,Oddball_task,2022.2.5,60.11501204200864,
standard,soundFiles/1000Hz_-3dBFS_3s_44.1kHz.wav',None,1000,49,2,198,2,,,,,721.6167864000017,722.6164062999887,722.616562279989,723.7334192999988,724.6166996999818,2.1075203765172863,None,1,,,,,,,,elpida_25_10_23,001,2023-10-25_16h39.30.564,Oddball_task,2022.2.5,60.11501204200864,
standard,soundFiles/1000Hz_-3dBFS_3s_44.1kHz.wav',None,1000,49,3,199,0,,,,,724.6166996999818,725.6162562999816,725.6163088799804,728.1345716000069,727.6171003000054,3.516098326459365,None,1,,,,,,,,elpida_25_10_23,001,2023-10-25_16h39.30.564,Oddball_task,2022.2.5,60.11501204200864,
standard,soundFiles/1000Hz_-3dBFS_3s_44.1kHz.wav',None,1000,50,0,200,1,,,,,728.1345716000069,729.1341505000019,729.1334840799973,731.6839867999952,731.1343319999869,3.546057576182415,None,1,,,,,,,,elpida_25_10_23,001,2023-10-25_16h39.30.564,Oddball_task,2022.2.5,60.11501204200864,
standard,soundFiles/1000Hz_-3dBFS_3s_44.1kHz.wav',None,1000,50,1,201,2,,,,,731.6839867999952,732.6671578999958,732.667602379981,735.1335132999811,734.6671441999788,3.442633691588302,None,1,,,,,,,,elpida_25_10_23,001,2023-10-25_16h39.30.564,Oddball_task,2022.2.5,60.11501204200864,
target,soundFiles/1200Hz_-3dBFS_3s_44.1kHz.wav',t,2000,50,2,202,3,,,,,735.1335132999811,736.1329747999844,736.133984879998,737.9002365999913,738.1340061999799,2.7515086977384424,t,1,0.8871335000148974,,,,,,,elpida_25_10_23,001,2023-10-25_16h39.30.564,Oddball_task,2022.2.5,60.11501204200864,
standard,soundFiles/1000Hz_-3dBFS_3s_44.1kHz.wav',None,1000,50,3,203,0,,,,,738.1340061999799,739.1339025000052,739.1329315799812,741.2332340999856,741.1343488999992,3.0883863739998225,None,1,,,,,,,,elpida_25_10_23,001,2023-10-25_16h39.30.564,Oddball_task,2022.2.5,60.11501204200864,
standard,soundFiles/1000Hz_-3dBFS_3s_44.1kHz.wav',None,1000,51,0,204,0,,,,,741.2332340999856,742.2336886999838,742.2330776799936,744.184236799978,744.2335770000063,2.937237917286584,None,1,,,,,,,,elpida_25_10_23,001,2023-10-25_16h39.30.564,Oddball_task,2022.2.5,60.11501204200864,
target,soundFiles/1200Hz_-3dBFS_3s_44.1kHz.wav',t,2000,51,1,205,3,,,,,744.2335770000063,745.2175710999873,745.2177352799918,748.200921599986,747.2176061999926,3.957599572520886,t,1,0.8036942000035197,,,,,,,elpida_25_10_23,001,2023-10-25_16h39.30.564,Oddball_task,2022.2.5,60.11501204200864,
standard,soundFiles/1000Hz_-3dBFS_3s_44.1kHz.wav',None,1000,51,2,206,1,,,,,748.200921599986,749.201126800006,749.2010339800036,751.9500406000006,751.2000355999917,3.734796805528274,None,1,,750.2008787999803,,,,,,elpida_25_10_23,001,2023-10-25_16h39.30.564,Oddball_task,2022.2.5,60.11501204200864,
standard,soundFiles/1000Hz_-3dBFS_3s_44.1kHz.wav',None,1000,51,3,207,2,,,,,751.9500406000006,752.9501049999963,752.9507275799988,754.0340678000066,754.9502995999937,2.079157597561578,None,1,,,,,,,,elpida_25_10_23,001,2023-10-25_16h39.30.564,Oddball_task,2022.2.5,60.11501204200864,
standard,soundFiles/1000Hz_-3dBFS_3s_44.1kHz.wav',None,1000,52,0,208,1,,,,,754.9502995999937,755.9501333999797,755.949693779985,758.9496670999797,757.9500920999853,3.998651702377755,None,1,,,,,,,,elpida_25_10_23,001,2023-10-25_16h39.30.564,Oddball_task,2022.2.5,60.11501204200864,
target,soundFiles/1200Hz_-3dBFS_3s_44.1kHz.wav',t,2000,52,1,209,3,,,,,758.9496670999797,759.9503763999965,759.9507460799941,762.5667414999916,761.95002259998,3.601681789687884,t,1,0.8778337999829091,,,,,,,elpida_25_10_23,001,2023-10-25_16h39.30.564,Oddball_task,2022.2.5,60.11501204200864,
standard,soundFiles/1000Hz_-3dBFS_3s_44.1kHz.wav',None,1000,52,2,210,0,,,,,762.5667414999916,763.5676963999867,763.5680713799957,764.9171173000068,765.5672796999861,2.341427835614075,None,1,,,,,,,,elpida_25_10_23,001,2023-10-25_16h39.30.564,Oddball_task,2022.2.5,60.11501204200864,
standard,soundFiles/1000Hz_-3dBFS_3s_44.1kHz.wav',None,1000,52,3,211,2,,,,,765.5672796999861,766.5670427999867,766.5669656799873,769.4338736000063,768.56750189999,3.857970483889444,None,1,,,,,,,,elpida_25_10_23,001,2023-10-25_16h39.30.564,Oddball_task,2022.2.5,60.11501204200864,
standard,soundFiles/1000Hz_-3dBFS_3s_44.1kHz.wav',None,1000,53,0,212,1,,,,,769.4338736000063,770.4344152999984,770.4343708799861,771.8839346999885,772.4341011999932,2.440227637483476,None,1,,,,,,,,elpida_25_10_23,001,2023-10-25_16h39.30.564,Oddball_task,2022.2.5,60.11501204200864,
target,soundFiles/1200Hz_-3dBFS_3s_44.1kHz.wav',t,2000,53,1,213,3,,,,,772.4341011999932,773.4173286999867,773.4185518799932,775.7676325999782,775.4177876999893,3.3316963605199836,t,1,0.7789957000059076,,,,,,,elpida_25_10_23,001,2023-10-25_16h39.30.564,Oddball_task,2022.2.5,60.11501204200864,
standard,soundFiles/1000Hz_-3dBFS_3s_44.1kHz.wav',None,1000,53,2,214,2,,,,,775.7676325999782,776.767382399994,776.7671135799901,777.9674778000044,778.7682168000028,2.192735052043673,None,1,,,,,,,,elpida_25_10_23,001,2023-10-25_16h39.30.564,Oddball_task,2022.2.5,60.11501204200864,
standard,soundFiles/1000Hz_-3dBFS_3s_44.1kHz.wav',None,1000,53,3,215,0,,,,,778.7682168000028,779.7670112999913,779.7668563799816,781.833887899993,781.7673681000015,3.0563116675758573,None,1,,,,,,,,elpida_25_10_23,001,2023-10-25_16h39.30.564,Oddball_task,2022.2.5,60.11501204200864,
standard,soundFiles/1000Hz_-3dBFS_3s_44.1kHz.wav',None,1000,54,0,216,1,,,,,781.833887899993,782.8341094999923,782.8339367799927,784.7504687999899,784.8351180999889,2.9159368165476645,None,1,,,,,,,,elpida_25_10_23,001,2023-10-25_16h39.30.564,Oddball_task,2022.2.5,60.11501204200864,
standard,soundFiles/1000Hz_-3dBFS_3s_44.1kHz.wav',None,1000,54,1,217,2,,,,,784.8351180999889,785.8352026999928,785.8337910799892,786.8677930999838,787.8511465000047,2.03119940751641,None,1,,,,,,,,elpida_25_10_23,001,2023-10-25_16h39.30.564,Oddball_task,2022.2.5,60.11501204200864,
target,soundFiles/1200Hz_-3dBFS_3s_44.1kHz.wav',t,2000,54,2,218,3,,,,,787.8511465000047,788.8506903999951,788.8506878799817,791.6175025999837,790.8511804000009,3.7523552250662116,t,1,0.777379800012568,,,,,,,elpida_25_10_23,001,2023-10-25_16h39.30.564,Oddball_task,2022.2.5,60.11501204200864,
standard,soundFiles/1000Hz_-3dBFS_3s_44.1kHz.wav',None,1000,54,3,219,0,,,,,791.6175025999837,792.6177723000001,792.617229180003,793.7675567999831,794.6172793000005,2.136420319863543,None,1,,,,,,,,elpida_25_10_23,001,2023-10-25_16h39.30.564,Oddball_task,2022.2.5,60.11501204200864,
target,soundFiles/1200Hz_-3dBFS_3s_44.1kHz.wav',t,2000,55,0,220,3,,,,,794.6172793000005,795.617640899989,795.6173577799927,796.9843599000014,797.6176025999885,2.3598753618217723,t,1,0.99512439998216,796.6179899999988,,,,,,elpida_25_10_23,001,2023-10-25_16h39.30.564,Oddball_task,2022.2.5,60.11501204200864,
standard,soundFiles/1000Hz_-3dBFS_3s_44.1kHz.wav',None,1000,55,1,221,1,,,,,797.6176025999885,798.6175134999794,798.6172915799834,801.0839783999836,800.6172326999949,3.4558186036139653,None,1,,,,,,,,elpida_25_10_23,001,2023-10-25_16h39.30.564,Oddball_task,2022.2.5,60.11501204200864,
standard,soundFiles/1000Hz_-3dBFS_3s_44.1kHz.wav',None,1000,55,2,222,2,,,,,801.0839783999836,802.0848277999903,802.0843256799853,803.8175295999972,804.0842019999982,2.724616311403421,None,1,,,,,,,,elpida_25_10_23,001,2023-10-25_16h39.30.564,Oddball_task,2022.2.5,60.11501204200864,
standard,soundFiles/1000Hz_-3dBFS_3s_44.1kHz.wav',None,1000,55,3,223,0,,,,,804.0842019999982,805.0846922000055,805.0842158799933,807.1512246000057,807.0850404999801,3.067792146577486,None,1,,,,,,,,elpida_25_10_23,001,2023-10-25_16h39.30.564,Oddball_task,2022.2.5,60.11501204200864,
target,soundFiles/1200Hz_-3dBFS_3s_44.1kHz.wav',t,2000,56,0,224,3,,,,,807.1512246000057,808.1510471999936,808.1507693799795,809.6176474999811,810.1696140999848,2.4514052699808153,t,1,1.0615649000101257,,,,,,,elpida_25_10_23,001,2023-10-25_16h39.30.564,Oddball_task,2022.2.5,60.11501204200864,
standard,soundFiles/1000Hz_-3dBFS_3s_44.1kHz.wav',None,1000,56,1,225,2,,,,,810.1696140999848,811.1512609999918,811.150625779992,813.9679340999865,813.1507009000052,3.788541894612778,None,1,,,,,,,,elpida_25_10_23,001,2023-10-25_16h39.30.564,Oddball_task,2022.2.5,60.11501204200864,
standard,soundFiles/1000Hz_-3dBFS_3s_44.1kHz.wav',None,1000,56,2,226,1,,,,,813.9679340999865,814.967304699996,814.9700062799966,817.5878117999819,816.9680242000031,3.5909331046633928,None,1,,,,,,,,elpida_25_10_23,001,2023-10-25_16h39.30.564,Oddball_task,2022.2.5,60.11501204200864,
standard,soundFiles/1000Hz_-3dBFS_3s_44.1kHz.wav',None,1000,56,3,227,0,,,,,817.5878117999819,818.5675098999927,818.5681149800075,820.9838699999964,820.5681984999974,3.3965394203154062,None,1,,,,,,,,elpida_25_10_23,001,2023-10-25_16h39.30.564,Oddball_task,2022.2.5,60.11501204200864,
standard,soundFiles/1000Hz_-3dBFS_3s_44.1kHz.wav',None,1000,57,0,228,1,,,,,820.9838699999964,821.9846587999782,821.9843893799989,824.3843419000041,823.9838382999878,3.3877912767492573,None,1,,822.9845142999839,,,,,,elpida_25_10_23,001,2023-10-25_16h39.30.564,Oddball_task,2022.2.5,60.11501204200864,
target,soundFiles/1200Hz_-3dBFS_3s_44.1kHz.wav',t,2000,57,1,229,3,,,,,824.3843419000041,825.3837903999956,825.3840879799973,827.3176889999886,827.384911799978,2.9280414209335377,t,1,0.9570232999976724,,,,,,,elpida_25_10_23,001,2023-10-25_16h39.30.564,Oddball_task,2022.2.5,60.11501204200864,
standard,soundFiles/1000Hz_-3dBFS_3s_44.1kHz.wav',None,1000,57,2,230,2,,,,,827.384911799978,828.3847004999989,828.3843760800082,831.2860133999784,830.3853165000037,3.8950048288505252,None,1,,829.3847954999947,,,,,,elpida_25_10_23,001,2023-10-25_16h39.30.564,Oddball_task,2022.2.5,60.11501204200864,
standard,soundFiles/1000Hz_-3dBFS_3s_44.1kHz.wav',None,1000,57,3,231,0,,,,,831.2860133999784,832.285472699994,832.2851173800009,833.7924900999933,834.2854209999787,2.4814544756631856,None,1,,,,,,,,elpida_25_10_23,001,2023-10-25_16h39.30.564,Oddball_task,2022.2.5,60.11501204200864,
standard,soundFiles/1000Hz_-3dBFS_3s_44.1kHz.wav',None,1000,58,0,232,2,,,,,834.2854209999787,835.2846123999916,835.2843001800065,837.8184141999809,837.2849451999937,3.5233220182443006,None,1,,,,,,,,elpida_25_10_23,001,2023-10-25_16h39.30.564,Oddball_task,2022.2.5,60.11501204200864,
target,soundFiles/1200Hz_-3dBFS_3s_44.1kHz.wav',t,2000,58,1,233,3,,,,,837.8184141999809,838.8179197999998,838.8176228799857,840.30111879998,840.8177545999933,2.4794699499923643,t,1,0.8505938999878708,,,,,,,elpida_25_10_23,001,2023-10-25_16h39.30.564,Oddball_task,2022.2.5,60.11501204200864,
standard,soundFiles/1000Hz_-3dBFS_3s_44.1kHz.wav',None,1000,58,2,234,0,,,,,840.8177545999933,841.8176835000049,841.8176384799881,843.6673451999959,843.8173065999872,2.835191301003731,None,1,,,,,,,,elpida_25_10_23,001,2023-10-25_16h39.30.564,Oddball_task,2022.2.5,60.11501204200864,
standard,soundFiles/1000Hz_-3dBFS_3s_44.1kHz.wav',None,1000,58,3,235,1,,,,,843.8173065999872,844.817598499998,844.8180773799832,847.8175160999817,846.8177291000029,3.989252371261877,None,1,,,,,,,,elpida_25_10_23,001,2023-10-25_16h39.30.564,Oddball_task,2022.2.5,60.11501204200864,
standard,soundFiles/1000Hz_-3dBFS_3s_44.1kHz.wav',None,1000,59,0,236,2,,,,,847.8175160999817,848.8184147999855,848.817946080002,851.052057199995,850.8187048999825,3.218826192752499,None,1,,,,,,,,elpida_25_10_23,001,2023-10-25_16h39.30.564,Oddball_task,2022.2.5,60.11501204200864,
target,soundFiles/1200Hz_-3dBFS_3s_44.1kHz.wav',t,2000,59,1,237,3,,,,,851.052057199995,852.0512997999904,852.0518474800047,854.2511168000055,854.050865199999,3.197453707825236,t,1,0.9451919000130147,,,,,,,elpida_25_10_23,001,2023-10-25_16h39.30.564,Oddball_task,2022.2.5,60.11501204200864,
standard,soundFiles/1000Hz_-3dBFS_3s_44.1kHz.wav',None,1000,59,2,238,1,,,,,854.2511168000055,855.250956599979,855.2509508799994,856.3181098999921,857.2509082999895,2.0602717793668166,None,1,,,,,,,,elpida_25_10_23,001,2023-10-25_16h39.30.564,Oddball_task,2022.2.5,60.11501204200864,
standard,soundFiles/1000Hz_-3dBFS_3s_44.1kHz.wav',None,1000,59,3,239,0,,,,,857.2509082999895,858.2503798999824,858.250929879985,859.5849537999893,860.2505466000002,2.3336624458420037,None,1,,,,,,,,elpida_25_10_23,001,2023-10-25_16h39.30.564,Oddball_task,2022.2.5,60.11501204200864,
target,soundFiles/1200Hz_-3dBFS_3s_44.1kHz.wav',t,2000,60,0,240,3,,,,,860.2505466000002,861.251291099994,861.2515177799796,863.667938300001,863.2512829999905,3.407474646949357,t,1,0.8506989000015892,862.2512695000041,,,,,,elpida_25_10_23,001,2023-10-25_16h39.30.564,Oddball_task,2022.2.5,60.11501204200864,
standard,soundFiles/1000Hz_-3dBFS_3s_44.1kHz.wav',None,1000,60,1,241,0,,,,,863.667938300001,864.6679711999896,864.6685537800076,867.0840907999955,866.6676598000049,3.416025347127124,None,1,,865.6681785999972,,,,,,elpida_25_10_23,001,2023-10-25_16h39.30.564,Oddball_task,2022.2.5,60.11501204200864,
standard,soundFiles/1000Hz_-3dBFS_3s_44.1kHz.wav',None,1000,60,2,242,2,,,,,867.0840907999955,868.0847854999884,868.0849369799835,870.2844159999804,870.0849255999783,3.19003541403354,None,1,,,,,,,,elpida_25_10_23,001,2023-10-25_16h39.30.564,Oddball_task,2022.2.5,60.11501204200864,
standard,soundFiles/1000Hz_-3dBFS_3s_44.1kHz.wav',None,1000,60,3,243,1,,,,,870.2844159999804,871.2858665999956,871.284551980003,872.7889213000017,873.3025909999851,2.494859891689563,None,1,,,,,,,,elpida_25_10_23,001,2023-10-25_16h39.30.564,Oddball_task,2022.2.5,60.11501204200864,
standard,soundFiles/1000Hz_-3dBFS_3s_44.1kHz.wav',None,1000,61,0,244,1,,,,,873.3025909999851,874.2846447000047,874.2844496799808,877.2518470000068,876.2842550000059,3.944028287538976,None,1,,,,,,,,elpida_25_10_23,001,2023-10-25_16h39.30.564,Oddball_task,2022.2.5,60.11501204200864,
standard,soundFiles/1000Hz_-3dBFS_3s_44.1kHz.wav',None,1000,61,1,245,0,,,,,877.2518470000068,878.2505497999955,878.2507983800024,880.617781399982,880.2519584999827,3.3629431448231566,None,1,,,,,,,,elpida_25_10_23,001,2023-10-25_16h39.30.564,Oddball_task,2022.2.5,60.11501204200864,
standard,soundFiles/1000Hz_-3dBFS_3s_44.1kHz.wav',None,1000,61,2,246,2,,,,,880.617781399982,881.6178765999794,881.6181460799999,883.8178214999789,883.6183108999976,3.1875138279936923,None,1,,,,,,,,elpida_25_10_23,001,2023-10-25_16h39.30.564,Oddball_task,2022.2.5,60.11501204200864,
target,soundFiles/1200Hz_-3dBFS_3s_44.1kHz.wav',t,2000,61,3,247,3,,,,,883.8178214999789,884.8186077999999,884.8177579799958,887.5522779999883,886.8179576999974,3.7273399146194603,t,1,0.7388632000074722,,,,,,,elpida_25_10_23,001,2023-10-25_16h39.30.564,Oddball_task,2022.2.5,60.11501204200864,
standard,soundFiles/1000Hz_-3dBFS_3s_44.1kHz.wav',None,1000,62,0,248,0,,,,,887.5522779999883,888.5513706000056,888.5516520800011,889.8849522999953,890.5525210000051,2.32654119931001,None,1,,,,,,,,elpida_25_10_23,001,2023-10-25_16h39.30.564,Oddball_task,2022.2.5,60.11501204200864,
standard,soundFiles/1000Hz_-3dBFS_3s_44.1kHz.wav',None,1000,62,1,249,1,,,,,890.5525210000051,891.5523639000021,891.5530550800031,893.8849099999934,893.5514878999966,3.3255185878321694,None,1,,,,,,,,elpida_25_10_23,001,2023-10-25_16h39.30.564,Oddball_task,2022.2.5,60.11501204200864,
target,soundFiles/1200Hz_-3dBFS_3s_44.1kHz.wav',t,2000,62,2,250,3,,,,,893.8849099999934,894.8849475999887,894.8847704799846,897.7848448999866,896.8858254999795,3.8949405747520465,t,1,0.8019943999825045,,,,,,,elpida_25_10_23,001,2023-10-25_16h39.30.564,Oddball_task,2022.2.5,60.11501204200864,
standard,soundFiles/1000Hz_-3dBFS_3s_44.1kHz.wav',None,1000,62,3,251,2,,,,,897.7848448999866,898.7849190999987,898.7851893799962,901.2690503000049,900.7848508000025,3.4809573971484737,None,1,,899.7861190999974,,,,,,elpida_25_10_23,001,2023-10-25_16h39.30.564,Oddball_task,2022.2.5,60.11501204200864,
target,soundFiles/1200Hz_-3dBFS_3s_44.1kHz.wav',t,2000,63,0,252,3,,,,,901.2690503000049,902.267809699988,902.2691696799884,903.5521355999808,904.2690347000025,2.282777941592828,t,1,0.8412209999805782,,,,,,,elpida_25_10_23,001,2023-10-25_16h39.30.564,Oddball_task,2022.2.5,60.11501204200864,
standard,soundFiles/1000Hz_-3dBFS_3s_44.1kHz.wav',None,1000,63,1,253,1,,,,,904.2690347000025,905.270643900003,905.2701513799839,906.984990099998,907.2844705999887,2.7081023137420717,None,1,,,,,,,,elpida_25_10_23,001,2023-10-25_16h39.30.564,Oddball_task,2022.2.5,60.11501204200864,
standard,soundFiles/1000Hz_-3dBFS_3s_44.1kHz.wav',None,1000,63,2,254,0,,,,,907.2844705999887,908.2850940999924,908.2851037799846,909.401727599994,910.285312699998,2.108601427317769,None,1,,,,,,,,elpida_25_10_23,001,2023-10-25_16h39.30.564,Oddball_task,2022.2.5,60.11501204200864,
standard,soundFiles/1000Hz_-3dBFS_3s_44.1kHz.wav',None,1000,63,3,255,2,,,,,910.285312699998,911.289000299992,911.2847886800009,913.2680805999844,913.3016768999805,2.9718386086083046,None,1,,,,,,,,elpida_25_10_23,001,2023-10-25_16h39.30.564,Oddball_task,2022.2.5,60.11501204200864,
standard,soundFiles/1000Hz_-3dBFS_3s_44.1kHz.wav',None,1000,64,0,256,0,,,,,913.3016768999805,914.3298069000011,914.3071937799978,915.5018455999962,916.3355140000058,2.199534307066153,None,1,,,,,,,,elpida_25_10_23,001,2023-10-25_16h39.30.564,Oddball_task,2022.2.5,60.11501204200864,
standard,soundFiles/1000Hz_-3dBFS_3s_44.1kHz.wav',None,1000,64,1,257,1,,,,,916.3355140000058,917.3345146999927,917.3341319799947,918.6359973999788,919.3348850999901,2.285883104310225,None,1,,,,,,,,elpida_25_10_23,001,2023-10-25_16h39.30.564,Oddball_task,2022.2.5,60.11501204200864,
standard,soundFiles/1000Hz_-3dBFS_3s_44.1kHz.wav',None,1000,64,2,258,2,,,,,919.3348850999901,920.3351181999897,920.3347449800058,921.4512692999851,922.3348116999841,2.1139524308599693,None,1,,921.335594300006,,,,,,elpida_25_10_23,001,2023-10-25_16h39.30.564,Oddball_task,2022.2.5,60.11501204200864,
target,soundFiles/1200Hz_-3dBFS_3s_44.1kHz.wav',t,2000,64,3,259,3,,,,,922.3348116999841,923.3358588999836,923.3347706799977,924.4519476999994,925.4082440999919,2.116722114383175,t,1,0.8131282999820542,,,,,,,elpida_25_10_23,001,2023-10-25_16h39.30.564,Oddball_task,2022.2.5,60.11501204200864,
target,soundFiles/1200Hz_-3dBFS_3s_44.1kHz.wav',t,2000,65,0,260,3,,,,,925.4082440999919,926.3690420000057,926.3685474800004,928.3518058999907,928.3693488999852,2.936829883008663,t,1,0.9721693000174128,,,,,,,elpida_25_10_23,001,2023-10-25_16h39.30.564,Oddball_task,2022.2.5,60.11501204200864,
standard,soundFiles/1000Hz_-3dBFS_3s_44.1kHz.wav',None,1000,65,1,261,1,,,,,928.3693488999852,929.3688932999794,929.3689025799977,930.7181448999909,931.3679910000064,2.343879903905061,None,1,,,,,,,,elpida_25_10_23,001,2023-10-25_16h39.30.564,Oddball_task,2022.2.5,60.11501204200864,
standard,soundFiles/1000Hz_-3dBFS_3s_44.1kHz.wav',None,1000,65,2,262,0,,,,,931.3679910000064,932.368450799986,932.368062280002,934.7239342999819,934.3692281999975,3.303725230737989,None,1,,,,,,,,elpida_25_10_23,001,2023-10-25_16h39.30.564,Oddball_task,2022.2.5,60.11501204200864,
standard,soundFiles/1000Hz_-3dBFS_3s_44.1kHz.wav',None,1000,65,3,263,2,,,,,934.7239342999819,935.6851337999979,935.6852973799978,937.2517729999963,937.6851347000047,2.5199516237865076,None,1,,,,,,,,elpida_25_10_23,001,2023-10-25_16h39.30.564,Oddball_task,2022.2.5,60.11501204200864,
target,soundFiles/1200Hz_-3dBFS_3s_44.1kHz.wav',t,2000,66,0,264,3,,,,,937.6851347000047,938.6846678000002,938.6848966800026,940.2857296000002,940.6853542999888,2.596951870963018,t,1,0.9524172999954317,,,,,,,elpida_25_10_23,001,2023-10-25_16h39.30.564,Oddball_task,2022.2.5,60.11501204200864,
standard,soundFiles/1000Hz_-3dBFS_3s_44.1kHz.wav',None,1000,66,1,265,2,,,,,940.6853542999888,941.6694335000066,941.6699737799936,943.5017637999845,943.6848608999862,2.8097523762650636,None,1,,,,,,,,elpida_25_10_23,001,2023-10-25_16h39.30.564,Oddball_task,2022.2.5,60.11501204200864,
standard,soundFiles/1000Hz_-3dBFS_3s_44.1kHz.wav',None,1000,66,2,266,1,,,,,943.6848608999862,944.6854745000019,944.6851822799945,947.25188169998,946.6861721999885,3.5650462627980604,None,1,,,,,,,,elpida_25_10_23,001,2023-10-25_16h39.30.564,Oddball_task,2022.2.5,60.11501204200864,
standard,soundFiles/1000Hz_-3dBFS_3s_44.1kHz.wav',None,1000,66,3,267,0,,,,,947.25188169998,948.2528338999837,948.2517001800006,949.885087600007,950.2518597999879,2.624292506629277,None,1,,,,,,,,elpida_25_10_23,001,2023-10-25_16h39.30.564,Oddball_task,2022.2.5,60.11501204200864,
standard,soundFiles/1000Hz_-3dBFS_3s_44.1kHz.wav',None,1000,67,0,268,1,,,,,950.2518597999879,951.2527560000017,951.2521593800047,953.4016627999954,953.252153599984,3.1449281079648057,None,1,,,,,,,,elpida_25_10_23,001,2023-10-25_16h39.30.564,Oddball_task,2022.2.5,60.11501204200864,
target,soundFiles/1200Hz_-3dBFS_3s_44.1kHz.wav',t,2000,67,1,269,3,,,,,953.4016627999954,954.4027099999948,954.4027171799971,956.852227299998,956.4020256999938,3.4446167458012633,t,1,1.0023734999995213,,,,,,,elpida_25_10_23,001,2023-10-25_16h39.30.564,Oddball_task,2022.2.5,60.11501204200864,
standard,soundFiles/1000Hz_-3dBFS_3s_44.1kHz.wav',None,1000,67,2,270,2,,,,,956.852227299998,957.8516325999808,957.851535380003,960.6687195999839,959.8529672999866,3.81051465366034,None,1,,,,,,,,elpida_25_10_23,001,2023-10-25_16h39.30.564,Oddball_task,2022.2.5,60.11501204200864,
standard,soundFiles/1000Hz_-3dBFS_3s_44.1kHz.wav',None,1000,67,3,271,0,,,,,960.6687195999839,961.6688802999852,961.6696812800074,964.4187438999943,963.6687594999967,3.7354868886600814,None,1,,962.669385199988,,,,,,elpida_25_10_23,001,2023-10-25_16h39.30.564,Oddball_task,2022.2.5,60.11501204200864,
standard,soundFiles/1000Hz_-3dBFS_3s_44.1kHz.wav',None,1000,68,0,272,0,,,,,964.4187438999943,965.4182648999849,965.4185454800026,966.9688820999872,967.4189708000049,2.5385409291329015,None,1,,,,,,,,elpida_25_10_23,001,2023-10-25_16h39.30.564,Oddball_task,2022.2.5,60.11501204200864,
target,soundFiles/1200Hz_-3dBFS_3s_44.1kHz.wav',t,2000,68,1,273,3,,,,,967.4189708000049,968.4184418999939,968.4181794799806,970.4350392000051,970.418780899985,3.0173890357282316,t,1,0.7235865000111517,,,,,,,elpida_25_10_23,001,2023-10-25_16h39.30.564,Oddball_task,2022.2.5,60.11501204200864,
standard,soundFiles/1000Hz_-3dBFS_3s_44.1kHz.wav',None,1000,68,2,274,2,,,,,970.4350392000051,971.4390583999921,971.4384173800063,973.2858967999928,973.4529801000026,2.842641795775518,None,1,,,,,,,,elpida_25_10_23,001,2023-10-25_16h39.30.564,Oddball_task,2022.2.5,60.11501204200864,
standard,soundFiles/1000Hz_-3dBFS_3s_44.1kHz.wav',None,1000,68,3,275,1,,,,,973.4529801000026,974.436460500001,974.4362723800004,976.7349463999853,976.4522405999887,3.2673530688530974,None,1,,,,,,,,elpida_25_10_23,001,2023-10-25_16h39.30.564,Oddball_task,2022.2.5,60.11501204200864,
standard,soundFiles/1000Hz_-3dBFS_3s_44.1kHz.wav',None,1000,69,0,276,1,,,,,976.7349463999853,977.7355934999941,977.7347238799848,979.7360353999829,979.7360353999829,2.9978492016139406,None,1,,,,,,,,elpida_25_10_23,001,2023-10-25_16h39.30.564,Oddball_task,2022.2.5,60.11501204200864,
standard,soundFiles/1000Hz_-3dBFS_3s_44.1kHz.wav',None,1000,69,1,277,2,,,,,979.7360353999829,980.7355281999917,980.7354691799846,983.0857084000017,982.736748700001,3.343242550029613,None,1,,,,,,,,elpida_25_10_23,001,2023-10-25_16h39.30.564,Oddball_task,2022.2.5,60.11501204200864,
target,soundFiles/1200Hz_-3dBFS_3s_44.1kHz.wav',t,2000,69,2,278,3,,,,,983.0857084000017,984.0853797000018,984.0852929799876,985.7026153999905,986.0855817999982,2.605262528173859,t,1,0.7848327000101563,,,,,,,elpida_25_10_23,001,2023-10-25_16h39.30.564,Oddball_task,2022.2.5,60.11501204200864,
standard,soundFiles/1000Hz_-3dBFS_3s_44.1kHz.wav',None,1000,69,3,279,0,,,,,986.0855817999982,987.0871526999981,987.0862556799839,989.3021046000067,989.0853524999984,3.212608667624976,None,1,,,,,,,,elpida_25_10_23,001,2023-10-25_16h39.30.564,Oddball_task,2022.2.5,60.11501204200864,
standard,soundFiles/1000Hz_-3dBFS_3s_44.1kHz.wav',None,1000,70,0,280,0,,,,,989.3021046000067,990.2864233999862,990.2864234799927,992.5193602999789,992.2859704000002,3.210775255950483,None,1,,,,,,,,elpida_25_10_23,001,2023-10-25_16h39.30.564,Oddball_task,2022.2.5,60.11501204200864,
standard,soundFiles/1000Hz_-3dBFS_3s_44.1kHz.wav',None,1000,70,1,281,1,,,,,992.5193602999789,993.5229120999866,993.52111668,996.2859202999971,995.535796399985,3.764966914781425,None,1,,,,,,,,elpida_25_10_23,001,2023-10-25_16h39.30.564,Oddball_task,2022.2.5,60.11501204200864,
target,soundFiles/1200Hz_-3dBFS_3s_44.1kHz.wav',t,2000,70,2,282,3,,,,,996.2859202999971,997.2854796999891,997.2861058799899,998.8691861999978,999.2862245999859,2.5730727589438653,t,1,0.8085398999974132,,,,,,,elpida_25_10_23,001,2023-10-25_16h39.30.564,Oddball_task,2022.2.5,60.11501204200864,
standard,soundFiles/1000Hz_-3dBFS_3s_44.1kHz.wav',None,1000,70,3,283,2,,,,,999.2862245999859,1000.2932204999961,1000.2767540799978,1002.885722099978,1002.3019036999904,3.592354277870062,None,1,,,,,,,,elpida_25_10_23,001,2023-10-25_16h39.30.564,Oddball_task,2022.2.5,60.11501204200864,
standard,soundFiles/1000Hz_-3dBFS_3s_44.1kHz.wav',None,1000,71,0,284,1,,,,,1002.885722099978,1003.8709343999799,1003.8711546800041,1005.1041105999902,1005.8855594999914,2.2103131188273375,None,1,,,,,,,,elpida_25_10_23,001,2023-10-25_16h39.30.564,Oddball_task,2022.2.5,60.11501204200864,
standard,soundFiles/1000Hz_-3dBFS_3s_44.1kHz.wav',None,1000,71,1,285,2,,,,,1005.8855594999914,1006.8856642000028,1006.8855990800075,1008.4856742999982,1008.88558989999,2.5875757272532445,None,1,,,,,,,,elpida_25_10_23,001,2023-10-25_16h39.30.564,Oddball_task,2022.2.5,60.11501204200864,
standard,soundFiles/1000Hz_-3dBFS_3s_44.1kHz.wav',None,1000,71,2,286,0,,,,,1008.88558989999,1009.8865030999877,1009.8862506799924,1010.9704374999856,1011.8855273999798,2.079924150810352,None,1,,,,,,,,elpida_25_10_23,001,2023-10-25_16h39.30.564,Oddball_task,2022.2.5,60.11501204200864,
target,soundFiles/1200Hz_-3dBFS_3s_44.1kHz.wav',t,2000,71,3,287,3,,,,,1011.8855273999798,1012.8861697999819,1012.8879362799926,1013.9527883999981,1014.8855246999883,2.060027433520216,t,1,0.8318579000188038,,,,,,,elpida_25_10_23,001,2023-10-25_16h39.30.564,Oddball_task,2022.2.5,60.11501204200864,
standard,soundFiles/1000Hz_-3dBFS_3s_44.1kHz.wav',None,1000,72,0,288,2,,,,,1014.8855246999883,1015.8859173999808,1015.8856851799937,1017.9536613999808,1017.8862389999849,3.0554756494936828,None,1,,,,,,,,elpida_25_10_23,001,2023-10-25_16h39.30.564,Oddball_task,2022.2.5,60.11501204200864,
standard,soundFiles/1000Hz_-3dBFS_3s_44.1kHz.wav',None,1000,72,1,289,1,,,,,1017.9536613999808,1018.9516429000068,1018.9517330800008,1020.5191672999936,1020.9530833000026,2.5634662484207826,None,1,,,,,,,,elpida_25_10_23,001,2023-10-25_16h39.30.564,Oddball_task,2022.2.5,60.11501204200864,
standard,soundFiles/1000Hz_-3dBFS_3s_44.1kHz.wav',None,1000,72,2,290,0,,,,,1020.9530833000026,1021.9801677000069,1021.9575929800048,1024.52425029999,1023.9868599000038,3.521768056038156,None,1,,,,,,,,elpida_25_10_23,001,2023-10-25_16h39.30.564,Oddball_task,2022.2.5,60.11501204200864,
target,soundFiles/1200Hz_-3dBFS_3s_44.1kHz.wav',t,2000,72,3,291,3,,,,,1024.52425029999,1025.5026387999824,1025.502248379984,1027.152813599998,1027.502658399986,2.617891697957684,t,1,0.6631040000065695,,,,,,,elpida_25_10_23,001,2023-10-25_16h39.30.564,Oddball_task,2022.2.5,60.11501204200864,
standard,soundFiles/1000Hz_-3dBFS_3s_44.1kHz.wav',None,1000,73,0,292,2,,,,,1027.502658399986,1028.5053613999917,1028.5046798799885,1030.31947029999,1030.5193072999828,2.810828064884013,None,1,,,,,,,,elpida_25_10_23,001,2023-10-25_16h39.30.564,Oddball_task,2022.2.5,60.11501204200864,
standard,soundFiles/1000Hz_-3dBFS_3s_44.1kHz.wav',None,1000,73,1,293,1,,,,,1030.5193072999828,1031.5188680999854,1031.519006980001,1032.6856568999938,1033.5195486999874,2.1605510084705544,None,1,,,,,,,,elpida_25_10_23,001,2023-10-25_16h39.30.564,Oddball_task,2022.2.5,60.11501204200864,
target,soundFiles/1200Hz_-3dBFS_3s_44.1kHz.wav',t,2000,73,2,294,3,,,,,1033.5195486999874,1034.5200235999946,1034.5189985799952,1035.8529233000008,1036.5197377000004,2.322805435534625,t,1,0.9343499999959022,,,,,,,elpida_25_10_23,001,2023-10-25_16h39.30.564,Oddball_task,2022.2.5,60.11501204200864,
standard,soundFiles/1000Hz_-3dBFS_3s_44.1kHz.wav',None,1000,73,3,295,0,,,,,1036.5197377000004,1037.519872999983,1037.5192859800009,1038.7858465999889,1039.519271199999,2.258351755494736,None,1,,,,,,,,elpida_25_10_23,001,2023-10-25_16h39.30.564,Oddball_task,2022.2.5,60.11501204200864,
target,soundFiles/1200Hz_-3dBFS_3s_44.1kHz.wav',t,2000,74,0,296,3,,,,,1039.519271199999,1040.5270503999782,1040.5075975799991,1041.6361733999802,1042.555292200006,2.1027186089871375,t,1,0.9028460999834351,,,,,,,elpida_25_10_23,001,2023-10-25_16h39.30.564,Oddball_task,2022.2.5,60.11501204200864,
standard,soundFiles/1000Hz_-3dBFS_3s_44.1kHz.wav',None,1000,74,1,297,0,,,,,1042.555292200006,1043.53540719999,1043.535588979983,1045.0697271999961,1045.5361054999812,2.501200210413576,None,1,,,,,,,,elpida_25_10_23,001,2023-10-25_16h39.30.564,Oddball_task,2022.2.5,60.11501204200864,
standard,soundFiles/1000Hz_-3dBFS_3s_44.1kHz.wav',None,1000,74,2,298,2,,,,,1045.5361054999812,1046.5357558999967,1046.5370585799974,1048.8529317000066,1048.5363400999922,3.3044500018254936,None,1,,,,,,,,elpida_25_10_23,001,2023-10-25_16h39.30.564,Oddball_task,2022.2.5,60.11501204200864,
standard,soundFiles/1000Hz_-3dBFS_3s_44.1kHz.wav',None,1000,74,3,299,1,,,,,1048.8529317000066,1049.8769831999962,1049.8571203799802,1051.7861131999816,1051.8855992000026,2.930365820749616,None,1,,,,,,,,elpida_25_10_23,001,2023-10-25_16h39.30.564,Oddball_task,2022.2.5,60.11501204200864,
standard,soundFiles/1000Hz_-3dBFS_3s_44.1kHz.wav',None,1000,75,0,300,1,,,,,1051.8855992000026,1052.8856197999849,1052.8855987800052,1055.2370368999837,1054.8865176999825,3.338189814085092,None,1,,,,,,,,elpida_25_10_23,001,2023-10-25_16h39.30.564,Oddball_task,2022.2.5,60.11501204200864,
standard,soundFiles/1000Hz_-3dBFS_3s_44.1kHz.wav',None,1000,75,1,301,0,,,,,1055.2370368999837,1056.2357226999884,1056.2357661800052,1057.5755614999798,1058.2370088000025,2.332280419797819,None,1,,,,,,,,elpida_25_10_23,001,2023-10-25_16h39.30.564,Oddball_task,2022.2.5,60.11501204200864,
standard,soundFiles/1000Hz_-3dBFS_3s_44.1kHz.wav',None,1000,75,2,302,2,,,,,1058.2370088000025,1059.2355678000022,1059.2355360799993,1061.4536262000038,1061.2356427999912,3.2116501437395306,None,1,,,,,,,,elpida_25_10_23,001,2023-10-25_16h39.30.564,Oddball_task,2022.2.5,60.11501204200864,
target,soundFiles/1200Hz_-3dBFS_3s_44.1kHz.wav',t,2000,75,3,303,3,,,,,1061.4536262000038,1062.4548746999935,1062.4533190799993,1065.353089799988,1064.4692258999858,3.8918517502673855,t,1,0.7271552000020165,,,,,,,elpida_25_10_23,001,2023-10-25_16h39.30.564,Oddball_task,2022.2.5,60.11501204200864,
standard,soundFiles/1000Hz_-3dBFS_3s_44.1kHz.wav',None,1000,76,0,304,1,,,,,1065.353089799988,1066.3531318999885,1066.3526629800035,1068.986081399984,1068.3528890000016,3.6271874804607123,None,1,,,,,,,,elpida_25_10_23,001,2023-10-25_16h39.30.564,Oddball_task,2022.2.5,60.11501204200864,
standard,soundFiles/1000Hz_-3dBFS_3s_44.1kHz.wav',None,1000,76,1,305,2,,,,,1068.986081399984,1069.986519500002,1069.9862541799957,1072.869295099983,1071.986260399979,3.882351249158038,None,1,,,,,,,,elpida_25_10_23,001,2023-10-25_16h39.30.564,Oddball_task,2022.2.5,60.11501204200864,
standard,soundFiles/1000Hz_-3dBFS_3s_44.1kHz.wav',None,1000,76,2,306,0,,,,,1072.869295099983,1073.8697784999968,1073.8696752800024,1075.2583066999796,1075.8694276000024,2.359798899799409,None,1,,,,,,,,elpida_25_10_23,001,2023-10-25_16h39.30.564,Oddball_task,2022.2.5,60.11501204200864,
target,soundFiles/1200Hz_-3dBFS_3s_44.1kHz.wav',t,2000,76,3,307,3,,,,,1075.8694276000024,1076.869321599981,1076.8693903799867,1078.6864200999844,1078.869729099999,2.803777550393821,t,1,0.7297120000002906,,,,,,,elpida_25_10_23,001,2023-10-25_16h39.30.564,Oddball_task,2022.2.5,60.11501204200864,
standard,soundFiles/1000Hz_-3dBFS_3s_44.1kHz.wav',None,1000,77,0,308,1,,,,,1078.869729099999,1079.8701881000015,1079.869208780001,1082.6525590999809,1081.8697271999845,3.7831434243546758,None,1,,,,,,,,elpida_25_10_23,001,2023-10-25_16h39.30.564,Oddball_task,2022.2.5,60.11501204200864,
standard,soundFiles/1000Hz_-3dBFS_3s_44.1kHz.wav',None,1000,77,1,309,2,,,,,1082.6525590999809,1083.6526813999808,1083.6526087799866,1086.3699409999826,1085.6527059999935,3.717235882736804,None,1,,,,,,,,elpida_25_10_23,001,2023-10-25_16h39.30.564,Oddball_task,2022.2.5,60.11501204200864,
target,soundFiles/1200Hz_-3dBFS_3s_44.1kHz.wav',t,2000,77,2,310,3,,,,,1086.3699409999826,1087.370006799989,1087.3690933799953,1088.4027920999797,1089.408398999978,2.0271130454964856,t,1,0.9568829000054393,,,,,,,elpida_25_10_23,001,2023-10-25_16h39.30.564,Oddball_task,2022.2.5,60.11501204200864,
standard,soundFiles/1000Hz_-3dBFS_3s_44.1kHz.wav',None,1000,77,3,311,0,,,,,1089.408398999978,1090.3862613999809,1090.3862741799967,1092.386225299997,1092.386225299997,2.968283363860126,None,1,,,,,,,,elpida_25_10_23,001,2023-10-25_16h39.30.564,Oddball_task,2022.2.5,60.11501204200864,
standard,soundFiles/1000Hz_-3dBFS_3s_44.1kHz.wav',None,1000,78,0,312,2,,,,,1092.386225299997,1093.3867886999797,1093.386620579986,1095.5542595000006,1095.3857499999867,3.158454967224663,None,1,,,,,,,,elpida_25_10_23,001,2023-10-25_16h39.30.564,Oddball_task,2022.2.5,60.11501204200864,
target,soundFiles/1200Hz_-3dBFS_3s_44.1kHz.wav',t,2000,78,1,313,3,,,,,1095.5542595000006,1096.5540778999857,1096.554082179995,1099.0861263999832,1098.5698772000032,3.521945519317567,t,1,0.8361416999832727,,,,,,,elpida_25_10_23,001,2023-10-25_16h39.30.564,Oddball_task,2022.2.5,60.11501204200864,
standard,soundFiles/1000Hz_-3dBFS_3s_44.1kHz.wav',None,1000,78,2,314,0,,,,,1099.0861263999832,1100.0859860999917,1100.0858329799958,1101.9702830000024,1102.0862141999824,2.879286902699457,None,1,,,,,,,,elpida_25_10_23,001,2023-10-25_16h39.30.564,Oddball_task,2022.2.5,60.11501204200864,
standard,soundFiles/1000Hz_-3dBFS_3s_44.1kHz.wav',None,1000,78,3,315,1,,,,,1102.0862141999824,1103.0863837999932,1103.086960279994,1104.920022699982,1105.0866127999907,2.82802313439183,None,1,,,,,,,,elpida_25_10_23,001,2023-10-25_16h39.30.564,Oddball_task,2022.2.5,60.11501204200864,
standard,soundFiles/1000Hz_-3dBFS_3s_44.1kHz.wav',None,1000,79,0,316,2,,,,,1105.0866127999907,1106.0864617000043,1106.0864824799937,1108.4706368999905,1108.1094101000053,3.3691968997121577,None,1,,,,,,,,elpida_25_10_23,001,2023-10-25_16h39.30.564,Oddball_task,2022.2.5,60.11501204200864,
standard,soundFiles/1000Hz_-3dBFS_3s_44.1kHz.wav',None,1000,79,1,317,1,,,,,1108.4706368999905,1109.4706260999956,1109.4708900800033,1111.9207225999853,1111.5087058999925,3.435680227184616,None,1,,,,,,,,elpida_25_10_23,001,2023-10-25_16h39.30.564,Oddball_task,2022.2.5,60.11501204200864,
standard,soundFiles/1000Hz_-3dBFS_3s_44.1kHz.wav',None,1000,79,2,318,0,,,,,1111.9207225999853,1112.919876400003,1112.919930079981,1114.4364628999901,1114.9196273999987,2.515107383574298,None,1,,,,,,,,elpida_25_10_23,001,2023-10-25_16h39.30.564,Oddball_task,2022.2.5,60.11501204200864,
target,soundFiles/1200Hz_-3dBFS_3s_44.1kHz.wav',t,2000,79,3,319,3,,,,,1114.9196273999987,1115.919968400005,1115.9201510800049,1118.0375585999864,1117.9202872999886,3.102425691118576,t,1,0.8551234999904409,,,,,,,elpida_25_10_23,001,2023-10-25_16h39.30.564,Oddball_task,2022.2.5,60.11501204200864,
standard,soundFiles/1000Hz_-3dBFS_3s_44.1kHz.wav',None,1000,80,0,320,2,,,,,1118.0375585999864,1119.0378404999792,1119.0371085799998,1121.5040695999924,1121.0531802999903,3.459291744538187,None,1,,,,,,,,elpida_25_10_23,001,2023-10-25_16h39.30.564,Oddball_task,2022.2.5,60.11501204200864,
standard,soundFiles/1000Hz_-3dBFS_3s_44.1kHz.wav',None,1000,80,1,321,1,,,,,1121.5040695999924,1122.503896099981,1122.5029601799906,1124.2866687999922,1124.503156699997,2.780272393503689,None,1,,,,,,,,elpida_25_10_23,001,2023-10-25_16h39.30.564,Oddball_task,2022.2.5,60.11501204200864,
target,soundFiles/1200Hz_-3dBFS_3s_44.1kHz.wav',t,2000,80,2,322,3,,,,,1124.503156699997,1125.48956669998,1125.490343279991,1127.6199327000068,1127.5032169999904,3.1151054598463066,t,1,0.9738086999859661,,,,,,,elpida_25_10_23,001,2023-10-25_16h39.30.564,Oddball_task,2022.2.5,60.11501204200864,
standard,soundFiles/1000Hz_-3dBFS_3s_44.1kHz.wav',None,1000,80,3,323,0,,,,,1127.6199327000068,1128.6211645999865,1128.6210347799934,1131.3532903000014,1130.6199903999805,3.7222836456269217,None,1,,,,,,,,elpida_25_10_23,001,2023-10-25_16h39.30.564,Oddball_task,2022.2.5,60.11501204200864,
standard,soundFiles/1000Hz_-3dBFS_3s_44.1kHz.wav',None,1000,81,0,324,1,,,,,1131.3532903000014,1132.3538169999956,1132.353127779992,1133.4872947999975,1134.3534916999924,2.128101827179783,None,1,,,,,,,,elpida_25_10_23,001,2023-10-25_16h39.30.564,Oddball_task,2022.2.5,60.11501204200864,
target,soundFiles/1200Hz_-3dBFS_3s_44.1kHz.wav',t,2000,81,1,325,3,,,,,1134.3534916999924,1135.3537834000017,1135.3538570799865,1138.103446699999,1137.3527342999878,3.7506144972969953,t,1,0.805888100003358,,,,,,,elpida_25_10_23,001,2023-10-25_16h39.30.564,Oddball_task,2022.2.5,60.11501204200864,
standard,soundFiles/1000Hz_-3dBFS_3s_44.1kHz.wav',None,1000,81,2,326,0,,,,,1138.103446699999,1139.1037808999827,1139.1034424800018,1141.003270599991,1141.1031703999906,2.8985262080154173,None,1,,,,,,,,elpida_25_10_23,001,2023-10-25_16h39.30.564,Oddball_task,2022.2.5,60.11501204200864,
standard,soundFiles/1000Hz_-3dBFS_3s_44.1kHz.wav',None,1000,81,3,327,2,,,,,1141.1031703999906,1142.104365999985,1142.1042086799862,1144.1197155999835,1144.1197155999835,3.0068692108099615,None,1,,,,,,,,elpida_25_10_23,001,2023-10-25_16h39.30.564,Oddball_task,2022.2.5,60.11501204200864,
standard,soundFiles/1000Hz_-3dBFS_3s_44.1kHz.wav',None,1000,82,0,328,2,,,,,1144.1197155999835,1145.1203690999828,1145.1199828799872,1146.2695931000053,1147.1197626999929,2.1384962739026223,None,1,,,,,,,,elpida_25_10_23,001,2023-10-25_16h39.30.564,Oddball_task,2022.2.5,60.11501204200864,
standard,soundFiles/1000Hz_-3dBFS_3s_44.1kHz.wav',None,1000,82,1,329,0,,,,,1147.1197626999929,1148.1191824999987,1148.1195453800028,1149.9372979000036,1150.1204597000033,2.80412644474304,None,1,,,,,,,,elpida_25_10_23,001,2023-10-25_16h39.30.564,Oddball_task,2022.2.5,60.11501204200864,
target,soundFiles/1200Hz_-3dBFS_3s_44.1kHz.wav',t,2000,82,2,330,3,,,,,1150.1204597000033,1151.1197679000034,1151.120125579997,1152.68703489998,1153.1196456000034,2.5645775316906487,t,1,0.7513567000278272,,,,,,,elpida_25_10_23,001,2023-10-25_16h39.30.564,Oddball_task,2022.2.5,60.11501204200864,
standard,soundFiles/1000Hz_-3dBFS_3s_44.1kHz.wav',None,1000,82,3,331,1,,,,,1153.1196456000034,1154.119421099982,1154.1196921799856,1155.669968799979,1156.119580300001,2.5424628893288834,None,1,,,,,,,,elpida_25_10_23,001,2023-10-25_16h39.30.564,Oddball_task,2022.2.5,60.11501204200864,
standard,soundFiles/1000Hz_-3dBFS_3s_44.1kHz.wav',None,1000,83,0,332,1,,,,,1156.119580300001,1157.1200250999827,1157.12007628,1160.070048499998,1159.1418603000056,3.9348978669401795,None,1,,,,,,,,elpida_25_10_23,001,2023-10-25_16h39.30.564,Oddball_task,2022.2.5,60.11501204200864,
standard,soundFiles/1000Hz_-3dBFS_3s_44.1kHz.wav',None,1000,83,1,333,0,,,,,1160.070048499998,1161.0707437999954,1161.0700961799885,1162.4204436999862,1163.0710711999855,2.344500651887161,None,1,,,,,,,,elpida_25_10_23,001,2023-10-25_16h39.30.564,Oddball_task,2022.2.5,60.11501204200864,
target,soundFiles/1200Hz_-3dBFS_3s_44.1kHz.wav',t,2000,83,2,334,3,,,,,1163.0710711999855,1164.0701222000062,1164.0701036799874,1166.3208757999819,1166.0709353999991,3.2487482908156755,t,1,0.8654734999872744,,,,,,,elpida_25_10_23,001,2023-10-25_16h39.30.564,Oddball_task,2022.2.5,60.11501204200864,
standard,soundFiles/1000Hz_-3dBFS_3s_44.1kHz.wav',None,1000,83,3,335,2,,,,,1166.3208757999819,1167.3198634999862,1167.3204982799944,1169.3872091999801,1169.3203423999948,3.0578297510259507,None,1,,,,,,,,elpida_25_10_23,001,2023-10-25_16h39.30.564,Oddball_task,2022.2.5,60.11501204200864,
standard,soundFiles/1000Hz_-3dBFS_3s_44.1kHz.wav',None,1000,84,0,336,1,,,,,1169.3872091999801,1170.3864566999837,1170.386758979992,1173.2047989999992,1172.3869224999798,3.808834991051996,None,1,,1171.3878880999982,,,,,,elpida_25_10_23,001,2023-10-25_16h39.30.564,Oddball_task,2022.2.5,60.11501204200864,
target,soundFiles/1200Hz_-3dBFS_3s_44.1kHz.wav',t,2000,84,1,337,3,,,,,1173.2047989999992,1174.2035239999823,1174.2034420800046,1176.6887601999915,1176.2041090999846,3.4836383017418044,t,1,0.8593542999878991,,,,,,,elpida_25_10_23,001,2023-10-25_16h39.30.564,Oddball_task,2022.2.5,60.11501204200864,
standard,soundFiles/1000Hz_-3dBFS_3s_44.1kHz.wav',None,1000,84,2,338,2,,,,,1176.6887601999915,1177.6875428000058,1177.6878911799868,1179.3035514999938,1179.6878267999855,2.6064077183277434,None,1,,1178.6870205999876,,,,,,elpida_25_10_23,001,2023-10-25_16h39.30.564,Oddball_task,2022.2.5,60.11501204200864,
standard,soundFiles/1000Hz_-3dBFS_3s_44.1kHz.wav',None,1000,84,3,339,0,,,,,1179.6878267999855,1180.6868526999897,1180.686694079981,1182.4704677999835,1182.6866582999937,2.767327020283956,None,1,,,,,,,,elpida_25_10_23,001,2023-10-25_16h39.30.564,Oddball_task,2022.2.5,60.11501204200864,
standard,soundFiles/1000Hz_-3dBFS_3s_44.1kHz.wav',None,1000,85,0,340,0,,,,,1182.6866582999937,1183.6872017999995,1183.6872453799879,1185.670594700001,1185.6873864999798,2.979496166338432,None,1,,,,,,,,elpida_25_10_23,001,2023-10-25_16h39.30.564,Oddball_task,2022.2.5,60.11501204200864,
target,soundFiles/1200Hz_-3dBFS_3s_44.1kHz.wav',t,2000,85,1,341,3,,,,,1185.6873864999798,1186.6874277000024,1186.6880649800005,1188.6039406000054,1188.687284499989,2.9014068478279573,t,1,0.8572559999884106,,,,,,,elpida_25_10_23,001,2023-10-25_16h39.30.564,Oddball_task,2022.2.5,60.11501204200864,
standard,soundFiles/1000Hz_-3dBFS_3s_44.1kHz.wav',None,1000,85,2,342,2,,,,,1188.687284499989,1189.6872776999953,1189.6873081800004,1192.403738299996,1191.688038799999,3.716890739221288,None,1,,,,,,,,elpida_25_10_23,001,2023-10-25_16h39.30.564,Oddball_task,2022.2.5,60.11501204200864,
standard,soundFiles/1000Hz_-3dBFS_3s_44.1kHz.wav',None,1000,85,3,343,1,,,,,1192.403738299996,1193.4039211999916,1193.4039823799976,1194.620591999992,1195.4036927999987,2.2113395314903057,None,1,,,,,,,,elpida_25_10_23,001,2023-10-25_16h39.30.564,Oddball_task,2022.2.5,60.11501204200864,
standard,soundFiles/1000Hz_-3dBFS_3s_44.1kHz.wav',None,1000,86,0,344,1,,,,,1195.4036927999987,1196.4037894999783,1196.4034614799893,1198.7374649999838,1198.4041014999966,3.3258116747086133,None,1,,,,,,,,elpida_25_10_23,001,2023-10-25_16h39.30.564,Oddball_task,2022.2.5,60.11501204200864,
standard,soundFiles/1000Hz_-3dBFS_3s_44.1kHz.wav',None,1000,86,1,345,2,,,,,1198.7374649999838,1199.7378326999897,1199.7380874799856,1201.82179799999,1201.7381460999895,3.08243697143728,None,1,,,,,,,,elpida_25_10_23,001,2023-10-25_16h39.30.564,Oddball_task,2022.2.5,60.11501204200864,
