trial,file,corrAns,tone,trials.thisRepN,trials.thisTrialN,trials.thisN,trials.thisIndex,trials_2.thisRepN,trials_2.thisTrialN,trials_2.thisN,trials_2.thisIndex,instructions.started,key_resp_1.started,key_resp_1.keys,key_resp_1.rt,fixation.started,response.started,sound_1.started,response.keys,response.corr,response.rt,feedback_text.started,feedback_text.stopped,instructions_2.started,key_resp_2.started,key_resp_2.keys,key_resp_2.rt,thank_you.started,exit_exp.started,thank_you.stopped,participant,session,date,expName,psychopyVersion,frameRate,
,,,,,,,,,,,,10.990828199952375,10.990828199952375,space,2.936972999945283,,,,,,,,,,,,,,,,jhg,001,2023-09-22_14h42.48.964,Oddball_task,2022.2.5,59.842399076889905,
standard,soundFiles/1000Hz_-3dBFS_3s_44.1kHz.wav',s,1000,0,0,0,2,,,,,,,,,13.951673699950334,14.9510349999764,14.951044029986951,s,1,0.6596275999909267,15.649500100000296,,,,,,,,,jhg,001,2023-09-22_14h42.48.964,Oddball_task,2022.2.5,59.842399076889905,
standard,soundFiles/1000Hz_-3dBFS_3s_44.1kHz.wav',s,1000,0,1,1,1,,,,,,,,,16.648969399975613,17.631572799989954,17.63190642996924,s,1,0.3213816999923438,17.997639399953187,18.996768799959682,,,,,,,,jhg,001,2023-09-22_14h42.48.964,Oddball_task,2022.2.5,59.842399076889905,
standard,soundFiles/1000Hz_-3dBFS_3s_44.1kHz.wav',s,1000,0,2,2,0,,,,,,,,,18.996768799959682,19.996498099993914,19.996221929986497,s,1,0.33455239998875186,20.37894339999184,,,,,,,,,jhg,001,2023-09-22_14h42.48.964,Oddball_task,2022.2.5,59.842399076889905,
target,soundFiles/1200Hz_-3dBFS_3s_44.1kHz.wav',t,1200,0,3,3,3,,,,,,,,,21.37841489998391,22.377520699985325,22.37747902995907,s,0,0.14443260000552982,22.559688399953302,,,,,,,,,jhg,001,2023-09-22_14h42.48.964,Oddball_task,2022.2.5,59.842399076889905,
,,,,,,,,,,,,,,,,,,,,,,,,23.559883499983698,23.559883499983698,space,1.4062455000239424,,,,jhg,001,2023-09-22_14h42.48.964,Oddball_task,2022.2.5,59.842399076889905,
standard,soundFiles/1000Hz_-3dBFS_3s_44.1kHz.wav',s,1000,,,,,0,0,0,1,,,,,24.991065299953334,25.990287099964917,25.990016229997856,s,1,0.5128616999718361,,,,,,,,,,jhg,001,2023-09-22_14h42.48.964,Oddball_task,2022.2.5,59.842399076889905,
standard,soundFiles/1000Hz_-3dBFS_3s_44.1kHz.wav',s,1000,,,,,0,1,1,1,,,,,26.539780399994925,27.521875399979763,27.52174282995984,s,1,0.2823610000195913,,,,,,,,,,jhg,001,2023-09-22_14h42.48.964,Oddball_task,2022.2.5,59.842399076889905,
target,soundFiles/1200Hz_-3dBFS_3s_44.1kHz.wav',t,1200,,,,,0,2,2,3,,,,,27.837775099964347,28.820690399967134,28.820672330004165,s,0,0.25220160000026226,,,,,,,,,,jhg,001,2023-09-22_14h42.48.964,Oddball_task,2022.2.5,59.842399076889905,
standard,soundFiles/1000Hz_-3dBFS_3s_44.1kHz.wav',s,1000,,,,,0,3,3,1,,,,,29.119805399968755,30.102719499962404,30.102609629998916,t,0,0.23078099999111146,,,,,,,,,,jhg,001,2023-09-22_14h42.48.964,Oddball_task,2022.2.5,59.842399076889905,
standard,soundFiles/1000Hz_-3dBFS_3s_44.1kHz.wav',s,1000,,,,,1,0,4,2,,,,,30.36873950000154,31.35220839997055,31.351489129965195,s,1,0.12755999999353662,,,,,,,,,,jhg,001,2023-09-22_14h42.48.964,Oddball_task,2022.2.5,59.842399076889905,
target,soundFiles/1200Hz_-3dBFS_3s_44.1kHz.wav',t,1200,,,,,1,1,5,3,,,,,31.51809999998659,32.5011308999965,32.50074953000294,s,0,0.05618499999400228,,,,,,,,,,jhg,001,2023-09-22_14h42.48.964,Oddball_task,2022.2.5,59.842399076889905,
standard,soundFiles/1000Hz_-3dBFS_3s_44.1kHz.wav',s,1000,,,,,1,2,6,0,,,,,32.60035019996576,33.583505899994634,33.582941629947165,s,1,0.48227580002276227,,,,,,,,,,jhg,001,2023-09-22_14h42.48.964,Oddball_task,2022.2.5,59.842399076889905,
standard,soundFiles/1000Hz_-3dBFS_3s_44.1kHz.wav',s,1000,,,,,1,3,7,2,,,,,34.09917229996063,35.08224560000235,35.08210622998886,t,0,0.06861160002881661,,,,,,,,,,jhg,001,2023-09-22_14h42.48.964,Oddball_task,2022.2.5,59.842399076889905,
standard,soundFiles/1000Hz_-3dBFS_3s_44.1kHz.wav',s,1000,,,,,2,0,8,2,,,,,35.19784479995724,36.18095999996876,36.18043822995387,s,1,0.16432670003268868,,,,,,,,,,jhg,001,2023-09-22_14h42.48.964,Oddball_task,2022.2.5,59.842399076889905,
standard,soundFiles/1000Hz_-3dBFS_3s_44.1kHz.wav',s,1000,,,,,2,1,9,2,,,,,36.37999809999019,37.36324189999141,37.36341012999183,s,1,0.14519060001475736,,,,,,,,,,jhg,001,2023-09-22_14h42.48.964,Oddball_task,2022.2.5,59.842399076889905,
standard,soundFiles/1000Hz_-3dBFS_3s_44.1kHz.wav',s,1000,,,,,2,2,10,0,,,,,37.545970499981195,38.54518039996037,38.545163729949856,t,0,0.18623769999248907,,,,,,,,,,jhg,001,2023-09-22_14h42.48.964,Oddball_task,2022.2.5,59.842399076889905,
target,soundFiles/1200Hz_-3dBFS_3s_44.1kHz.wav',t,1200,,,,,2,3,11,3,,,,,38.77797329996247,39.76135719998274,39.76132362995995,s,0,0.25283270003274083,,,,,,,,,,jhg,001,2023-09-22_14h42.48.964,Oddball_task,2022.2.5,59.842399076889905,
standard,soundFiles/1000Hz_-3dBFS_3s_44.1kHz.wav',s,1000,,,,,3,0,12,2,,,,,40.06039149995195,41.04287129995646,41.042748029949145,s,1,0.07615420001093298,,,,,,,,,,jhg,001,2023-09-22_14h42.48.964,Oddball_task,2022.2.5,59.842399076889905,
standard,soundFiles/1000Hz_-3dBFS_3s_44.1kHz.wav',s,1000,,,,,3,1,13,0,,,,,41.15897589997621,42.14197289996082,42.142265929980205,s,1,0.10208039998542517,,,,,,,,,,jhg,001,2023-09-22_14h42.48.964,Oddball_task,2022.2.5,59.842399076889905,
standard,soundFiles/1000Hz_-3dBFS_3s_44.1kHz.wav',s,1000,,,,,3,2,14,1,,,,,42.291190599964466,43.274276999989524,43.27391392996069,s,1,0.07558810000773519,,,,,,,,,,jhg,001,2023-09-22_14h42.48.964,Oddball_task,2022.2.5,59.842399076889905,
standard,soundFiles/1000Hz_-3dBFS_3s_44.1kHz.wav',s,1000,,,,,3,3,15,0,,,,,43.39025880000554,44.37361459998647,44.3728648299817,s,1,0.37868010002421215,,,,,,,,,,jhg,001,2023-09-22_14h42.48.964,Oddball_task,2022.2.5,59.842399076889905,
standard,soundFiles/1000Hz_-3dBFS_3s_44.1kHz.wav',s,1000,,,,,4,0,16,1,,,,,44.789053999993484,45.7719259999576,45.7719041299657,s,1,0.28963549999753013,,,,,,,,,,jhg,001,2023-09-22_14h42.48.964,Oddball_task,2022.2.5,59.842399076889905,
target,soundFiles/1200Hz_-3dBFS_3s_44.1kHz.wav',t,1200,,,,,4,1,17,3,,,,,46.10429759998806,47.10417740000412,47.10337402999867,t,1,0.31284089997643605,,,,,,,,,,jhg,001,2023-09-22_14h42.48.964,Oddball_task,2022.2.5,59.842399076889905,
target,soundFiles/1200Hz_-3dBFS_3s_44.1kHz.wav',t,1200,,,,,4,2,18,3,,,,,47.45318369998131,48.45269099995494,48.45261872998672,s,0,0.1997624000068754,,,,,,,,,,jhg,001,2023-09-22_14h42.48.964,Oddball_task,2022.2.5,59.842399076889905,
standard,soundFiles/1000Hz_-3dBFS_3s_44.1kHz.wav',s,1000,,,,,4,3,19,2,,,,,48.68530919996556,49.68495480000274,49.68464302995708,s,1,0.3311870999750681,,,,,,,,,,jhg,001,2023-09-22_14h42.48.964,Oddball_task,2022.2.5,59.842399076889905,
standard,soundFiles/1000Hz_-3dBFS_3s_44.1kHz.wav',s,1000,,,,,5,0,20,2,,,,,50.05109819996869,51.033349099976476,51.034051829972306,s,1,0.3776099000242539,,,,,,,,,,jhg,001,2023-09-22_14h42.48.964,Oddball_task,2022.2.5,59.842399076889905,
standard,soundFiles/1000Hz_-3dBFS_3s_44.1kHz.wav',s,1000,,,,,5,1,21,2,,,,,51.44934959994862,52.43232049996732,52.43269102999475,s,1,0.31969949998892844,,,,,,,,,,jhg,001,2023-09-22_14h42.48.964,Oddball_task,2022.2.5,59.842399076889905,
standard,soundFiles/1000Hz_-3dBFS_3s_44.1kHz.wav',s,1000,,,,,5,2,22,0,,,,,52.798607799981255,53.781474599963985,53.78150052998681,s,1,0.3409893999923952,,,,,,,,,,jhg,001,2023-09-22_14h42.48.964,Oddball_task,2022.2.5,59.842399076889905,
standard,soundFiles/1000Hz_-3dBFS_3s_44.1kHz.wav',s,1000,,,,,5,3,23,0,,,,,54.163734500005376,55.16270409995923,55.16361802999163,s,1,0.295734099985566,,,,,,,,,,jhg,001,2023-09-22_14h42.48.964,Oddball_task,2022.2.5,59.842399076889905,
standard,soundFiles/1000Hz_-3dBFS_3s_44.1kHz.wav',s,1000,,,,,6,0,24,1,,,,,55.49601679999614,56.495276999950875,56.49521872997284,s,1,0.27615399996284395,,,,,,,,,,jhg,001,2023-09-22_14h42.48.964,Oddball_task,2022.2.5,59.842399076889905,
standard,soundFiles/1000Hz_-3dBFS_3s_44.1kHz.wav',s,1000,,,,,6,1,25,1,,,,,56.811330099997576,57.794021699985024,57.79425142998807,s,1,0.33746879996033385,,,,,,,,,,jhg,001,2023-09-22_14h42.48.964,Oddball_task,2022.2.5,59.842399076889905,
standard,soundFiles/1000Hz_-3dBFS_3s_44.1kHz.wav',s,1000,,,,,6,2,26,2,,,,,58.176466099976096,59.17599399999017,59.17629522995558,s,1,0.2824259999906644,,,,,,,,,,jhg,001,2023-09-22_14h42.48.964,Oddball_task,2022.2.5,59.842399076889905,
standard,soundFiles/1000Hz_-3dBFS_3s_44.1kHz.wav',s,1000,,,,,6,3,27,0,,,,,59.475603199971374,60.47505769995041,60.47521042994922,s,1,0.2578308999654837,,,,,,,,,,jhg,001,2023-09-22_14h42.48.964,Oddball_task,2022.2.5,59.842399076889905,
target,soundFiles/1200Hz_-3dBFS_3s_44.1kHz.wav',t,1200,,,,,7,0,28,3,,,,,60.77400429995032,61.773992599977646,61.774160829978065,s,0,0.24011760001303628,,,,,,,,,,jhg,001,2023-09-22_14h42.48.964,Oddball_task,2022.2.5,59.842399076889905,
target,soundFiles/1200Hz_-3dBFS_3s_44.1kHz.wav',t,1200,,,,,7,1,29,3,,,,,62.05658969999058,63.05617139994865,63.05591572998092,t,1,0.41851909999968484,,,,,,,,,,jhg,001,2023-09-22_14h42.48.964,Oddball_task,2022.2.5,59.842399076889905,
standard,soundFiles/1000Hz_-3dBFS_3s_44.1kHz.wav',s,1000,,,,,7,2,30,0,,,,,63.521908800001256,64.50467070000013,64.50444102999754,s,1,0.6086262000026181,,,,,,,,,,jhg,001,2023-09-22_14h42.48.964,Oddball_task,2022.2.5,59.842399076889905,
standard,soundFiles/1000Hz_-3dBFS_3s_44.1kHz.wav',s,1000,,,,,7,3,31,1,,,,,65.15326549997553,66.15316940000048,66.15380012997193,s,1,0.4642325000022538,,,,,,,,,,jhg,001,2023-09-22_14h42.48.964,Oddball_task,2022.2.5,59.842399076889905,
target,soundFiles/1200Hz_-3dBFS_3s_44.1kHz.wav',t,1200,,,,,8,0,32,3,,,,,66.6524316999712,67.63511869998183,67.63489232994615,t,1,0.4594579000258818,,,,,,,,,,jhg,001,2023-09-22_14h42.48.964,Oddball_task,2022.2.5,59.842399076889905,
standard,soundFiles/1000Hz_-3dBFS_3s_44.1kHz.wav',s,1000,,,,,8,1,33,2,,,,,68.13422299997183,69.13358119997429,69.13392282995628,s,1,0.3509471000288613,,,,,,,,,,jhg,001,2023-09-22_14h42.48.964,Oddball_task,2022.2.5,59.842399076889905,
standard,soundFiles/1000Hz_-3dBFS_3s_44.1kHz.wav',s,1000,,,,,8,2,34,1,,,,,69.51637569995364,70.51604809996206,70.51563382995081,s,1,0.32682749995728955,,,,,,,,,,jhg,001,2023-09-22_14h42.48.964,Oddball_task,2022.2.5,59.842399076889905,
standard,soundFiles/1000Hz_-3dBFS_3s_44.1kHz.wav',s,1000,,,,,8,3,35,1,,,,,70.88162609998835,71.86469319998287,71.86436112995725,s,1,0.30188849999103695,,,,,,,,,,jhg,001,2023-09-22_14h42.48.964,Oddball_task,2022.2.5,59.842399076889905,
target,soundFiles/1200Hz_-3dBFS_3s_44.1kHz.wav',t,1200,,,,,9,0,36,3,,,,,72.21355769998627,73.2134654999827,73.21316922999685,t,1,0.43409220001194626,,,,,,,,,,jhg,001,2023-09-22_14h42.48.964,Oddball_task,2022.2.5,59.842399076889905,
standard,soundFiles/1000Hz_-3dBFS_3s_44.1kHz.wav',s,1000,,,,,9,1,37,0,,,,,73.69556109997211,74.69456649996573,74.69492972999578,s,1,0.19599179999204352,,,,,,,,,,jhg,001,2023-09-22_14h42.48.964,Oddball_task,2022.2.5,59.842399076889905,
standard,soundFiles/1000Hz_-3dBFS_3s_44.1kHz.wav',s,1000,,,,,9,2,38,0,,,,,74.92779240000527,75.91036259999964,75.91066362996352,s,1,0.2537302999990061,,,,,,,,,,jhg,001,2023-09-22_14h42.48.964,Oddball_task,2022.2.5,59.842399076889905,
target,soundFiles/1200Hz_-3dBFS_3s_44.1kHz.wav',t,1200,,,,,9,3,39,3,,,,,76.2099682999542,77.19293609994929,77.19246512997196,t,1,0.40456240001367405,,,,,,,,,,jhg,001,2023-09-22_14h42.48.964,Oddball_task,2022.2.5,59.842399076889905,
,,,,,,,,,,,,,,,,,,,,,,,,,,,,77.62578149995534,80.62288169999374,80.63974600000074,,,,,,,
