trial,file,corrAns,tone,trials_2.thisRepN,trials_2.thisTrialN,trials_2.thisN,trials_2.thisIndex,instructions.started,key_resp_1.started,key_resp_1.keys,key_resp_1.rt,fixation.started,response.started,sound_1.started,response.stopped,fixation.stopped,FixDur,response.keys,response.corr,response.rt,sound_1.stopped,thank_you.started,thank_you.stopped,exit_exp.started,participant,session,date,expName,psychopyVersion,frameRate,
,,,,,,,,17.22099060000619,17.22099060000619,space,18.449439999982133,,,,,,,,,,,,,,levi,001,2023-10-27_12h24.55.145,Oddball_task,2022.2.5,59.94391647561336,
standard,soundFiles/1000Hz_-3dBFS_3s_44.1kHz.wav',None,1000,0,0,0,2,,,,,35.70350909999979,36.68851330000325,36.68732649000449,38.68877249999787,39.65620789999957,3.947257182097557,None,1,,,,,,levi,001,2023-10-27_12h24.55.145,Oddball_task,2022.2.5,59.94391647561336,
standard,soundFiles/1000Hz_-3dBFS_3s_44.1kHz.wav',None,1000,0,1,1,0,,,,,39.65620789999957,40.65674710000167,40.65368769000488,42.67070610000519,43.15477990001091,3.483619443662014,None,1,,,,,,levi,001,2023-10-27_12h24.55.145,Oddball_task,2022.2.5,59.94391647561336,
target,soundFiles/1200Hz_-3dBFS_3s_44.1kHz.wav',t,2000,0,2,2,3,,,,,43.15477990001091,44.13850190000085,44.13969259000296,46.137918400010676,46.70443470000464,3.533738249991851,t,1,1.1765095999871846,,,,,levi,001,2023-10-27_12h24.55.145,Oddball_task,2022.2.5,59.94391647561336,
standard,soundFiles/1000Hz_-3dBFS_3s_44.1kHz.wav',None,1000,0,3,3,1,,,,,46.70443470000464,47.70441079999728,47.70391439000232,49.70369300000311,50.255309000000125,3.537143217354612,None,1,,,,,,levi,001,2023-10-27_12h24.55.145,Oddball_task,2022.2.5,59.94391647561336,
standard,soundFiles/1000Hz_-3dBFS_3s_44.1kHz.wav',None,1000,1,0,4,0,,,,,50.255309000000125,51.25497419999738,51.25380509000242,53.27048380000633,52.95468940000865,2.6912100619981576,None,1,,,,,,levi,001,2023-10-27_12h24.55.145,Oddball_task,2022.2.5,59.94391647561336,
standard,soundFiles/1000Hz_-3dBFS_3s_44.1kHz.wav',None,1000,1,1,5,2,,,,,53.27048380000633,54.27068320001126,54.27094719000015,56.270469299997785,55.35350760001165,2.0838303574875576,None,1,,,,,,levi,001,2023-10-27_12h24.55.145,Oddball_task,2022.2.5,59.94391647561336,
standard,soundFiles/1000Hz_-3dBFS_3s_44.1kHz.wav',None,1000,1,2,6,1,,,,,56.270469299997785,57.2709765000036,57.271410790008666,59.2704672000109,59.28768730000593,3.016247610066393,None,1,,,,,,levi,001,2023-10-27_12h24.55.145,Oddball_task,2022.2.5,59.94391647561336,
target,soundFiles/1200Hz_-3dBFS_3s_44.1kHz.wav',t,2000,1,3,7,3,,,,,59.28768730000593,60.28706870001042,60.28621559000603,62.28673449999769,63.15351360000204,3.8616159438602615,t,1,1.1024622999830171,,,,,levi,001,2023-10-27_12h24.55.145,Oddball_task,2022.2.5,59.94391647561336,
target,soundFiles/1200Hz_-3dBFS_3s_44.1kHz.wav',t,2000,2,0,8,3,,,,,63.15351360000204,64.13651560001017,64.137282590002,66.13636530000076,65.72137630000361,2.5641592285977035,t,1,1.3303338999976404,65.13642010001058,,,,levi,001,2023-10-27_12h24.55.145,Oddball_task,2022.2.5,59.94391647561336,
standard,soundFiles/1000Hz_-3dBFS_3s_44.1kHz.wav',None,1000,2,1,9,2,,,,,66.13636530000076,67.13685450000048,67.1381292900027,69.136333500006,70.00347429999965,3.859279582818008,None,1,,68.13654950000637,,,,levi,001,2023-10-27_12h24.55.145,Oddball_task,2022.2.5,59.94391647561336,
standard,soundFiles/1000Hz_-3dBFS_3s_44.1kHz.wav',None,1000,2,2,10,0,,,,,70.00347429999965,71.0035360000038,71.00409419000644,73.01851850000094,72.36880419999943,2.3650398045495553,None,1,,,,,,levi,001,2023-10-27_12h24.55.145,Oddball_task,2022.2.5,59.94391647561336,
standard,soundFiles/1000Hz_-3dBFS_3s_44.1kHz.wav',None,1000,2,3,11,1,,,,,73.01851850000094,74.00285280001117,74.0030769900026,76.0025394000113,76.8195476999972,3.788561897453845,None,1,,,,,,levi,001,2023-10-27_12h24.55.145,Oddball_task,2022.2.5,59.94391647561336,
target,soundFiles/1200Hz_-3dBFS_3s_44.1kHz.wav',t,2000,3,0,12,3,,,,,76.8195476999972,77.80306089999794,77.8045721900111,79.80175150001014,79.0015762999974,2.1766648859069013,t,1,0.8829729999852134,,,,,levi,001,2023-10-27_12h24.55.145,Oddball_task,2022.2.5,59.94391647561336,
standard,soundFiles/1000Hz_-3dBFS_3s_44.1kHz.wav',None,1000,3,1,13,1,,,,,79.80175150001014,80.80149450000317,80.8023693900017,82.80308260000311,83.38617170001089,3.5810567749778044,None,1,,,,,,levi,001,2023-10-27_12h24.55.145,Oddball_task,2022.2.5,59.94391647561336,
standard,soundFiles/1000Hz_-3dBFS_3s_44.1kHz.wav',None,1000,3,2,14,2,,,,,83.38617170001089,84.38591209999868,84.38450709001191,86.38712630000373,86.38712630000373,2.9852886795387956,None,1,,,,,,levi,001,2023-10-27_12h24.55.145,Oddball_task,2022.2.5,59.94391647561336,
standard,soundFiles/1000Hz_-3dBFS_3s_44.1kHz.wav',None,1000,3,3,15,0,,,,,86.38712630000373,87.38585250001051,87.38554389000493,89.40359640000679,88.58589319999737,2.1912290911087746,None,1,,88.38709230000677,,,,levi,001,2023-10-27_12h24.55.145,Oddball_task,2022.2.5,59.94391647561336,
standard,soundFiles/1000Hz_-3dBFS_3s_44.1kHz.wav',None,1000,4,0,16,2,,,,,89.40359640000679,90.40241850000166,90.4020488900118,92.401949600011,92.50154110000585,3.099734739463293,None,1,,,,,,levi,001,2023-10-27_12h24.55.145,Oddball_task,2022.2.5,59.94391647561336,
standard,soundFiles/1000Hz_-3dBFS_3s_44.1kHz.wav',None,1000,4,1,17,0,,,,,92.50154110000585,93.50174520000292,93.5023809899998,95.5016195000062,95.46716070000548,2.958357545108882,None,1,,,,,,levi,001,2023-10-27_12h24.55.145,Oddball_task,2022.2.5,59.94391647561336,
standard,soundFiles/1000Hz_-3dBFS_3s_44.1kHz.wav',None,1000,4,2,18,1,,,,,95.5016195000062,96.5008300000045,96.50216549000325,98.50130899999931,97.85127280000597,2.3357871773369494,None,1,,,,,,levi,001,2023-10-27_12h24.55.145,Oddball_task,2022.2.5,59.94391647561336,
target,soundFiles/1200Hz_-3dBFS_3s_44.1kHz.wav',t,2000,4,3,19,3,,,,,98.50130899999931,99.50074689999747,99.50197209000035,101.50205940000887,100.8344872000016,2.332902822258952,t,1,0.8400006000010762,,,,,levi,001,2023-10-27_12h24.55.145,Oddball_task,2022.2.5,59.94391647561336,
standard,soundFiles/1000Hz_-3dBFS_3s_44.1kHz.wav',None,1000,5,0,20,0,,,,,101.50205940000887,102.50124880000658,102.50264648999874,104.49993540000287,104.13368470000569,2.6188299558330823,None,1,,,,,,levi,001,2023-10-27_12h24.55.145,Oddball_task,2022.2.5,59.94391647561336,
target,soundFiles/1200Hz_-3dBFS_3s_44.1kHz.wav',t,2000,5,1,21,3,,,,,104.49993540000287,105.5007120000082,105.50096829001123,107.50129759999982,108.01747810000961,3.5033205246627324,t,1,0.9564600999874528,,,,,levi,001,2023-10-27_12h24.55.145,Oddball_task,2022.2.5,59.94391647561336,
standard,soundFiles/1000Hz_-3dBFS_3s_44.1kHz.wav',None,1000,5,2,22,1,,,,,108.01747810000961,109.01903399999719,109.01749239000347,111.03433550000773,110.73538320000807,2.7164831100444062,None,1,,,,,,levi,001,2023-10-27_12h24.55.145,Oddball_task,2022.2.5,59.94391647561336,
standard,soundFiles/1000Hz_-3dBFS_3s_44.1kHz.wav',None,1000,5,3,23,2,,,,,111.03433550000773,112.03334480000194,112.03411519000511,114.03387060000387,113.7843026000046,2.735705289714769,None,1,,,,,,levi,001,2023-10-27_12h24.55.145,Oddball_task,2022.2.5,59.94391647561336,
standard,soundFiles/1000Hz_-3dBFS_3s_44.1kHz.wav',None,1000,6,0,24,0,,,,,114.03387060000387,115.03442540000833,115.03619339001162,117.03435529999842,116.73300839999865,2.6884043805822015,None,1,,,,,,levi,001,2023-10-27_12h24.55.145,Oddball_task,2022.2.5,59.94391647561336,
standard,soundFiles/1000Hz_-3dBFS_3s_44.1kHz.wav',None,1000,6,1,25,2,,,,,117.03435529999842,118.03353450000577,118.0348785900118,120.0335294000106,120.75025310000638,3.7031020849716505,None,1,,119.03455720000784,,,,levi,001,2023-10-27_12h24.55.145,Oddball_task,2022.2.5,59.94391647561336,
target,soundFiles/1200Hz_-3dBFS_3s_44.1kHz.wav',t,2000,6,2,26,3,,,,,120.75025310000638,121.75000040000305,121.74998438999901,123.75038820000191,124.73392420000164,3.973063485490738,t,1,0.9656710999988718,,,,,levi,001,2023-10-27_12h24.55.145,Oddball_task,2022.2.5,59.94391647561336,
standard,soundFiles/1000Hz_-3dBFS_3s_44.1kHz.wav',None,1000,6,3,27,1,,,,,124.73392420000164,125.73656930000288,125.73401889001107,127.75167019999935,128.73290420000558,3.986896796192297,None,1,,,,,,levi,001,2023-10-27_12h24.55.145,Oddball_task,2022.2.5,59.94391647561336,
standard,soundFiles/1000Hz_-3dBFS_3s_44.1kHz.wav',None,1000,7,0,28,1,,,,,128.73290420000558,129.73314270000265,129.7337820900124,131.7331325999985,131.95041790000687,3.201482956672141,None,1,,,,,,levi,001,2023-10-27_12h24.55.145,Oddball_task,2022.2.5,59.94391647561336,
standard,soundFiles/1000Hz_-3dBFS_3s_44.1kHz.wav',None,1000,7,1,29,2,,,,,131.95041790000687,132.95091759999923,132.95084999000974,134.96581870000227,135.51665180000418,3.561583084302997,None,1,,,,,,levi,001,2023-10-27_12h24.55.145,Oddball_task,2022.2.5,59.94391647561336,
standard,soundFiles/1000Hz_-3dBFS_3s_44.1kHz.wav',None,1000,7,2,30,0,,,,,135.51665180000418,136.5166360000003,136.51553409000772,138.51731250000012,137.84938050000346,2.3318883280554124,None,1,,,,,,levi,001,2023-10-27_12h24.55.145,Oddball_task,2022.2.5,59.94391647561336,
target,soundFiles/1200Hz_-3dBFS_3s_44.1kHz.wav',t,2000,7,3,31,3,,,,,138.51731250000012,139.51852810000128,139.5152333900027,141.5317428999988,141.9983932000032,3.47022866339624,t,1,0.822321199986618,,,,,levi,001,2023-10-27_12h24.55.145,Oddball_task,2022.2.5,59.94391647561336,
standard,soundFiles/1000Hz_-3dBFS_3s_44.1kHz.wav',None,1000,8,0,32,1,,,,,141.9983932000032,142.99793080000381,142.99862758999953,144.9992945999984,144.0315380000102,2.034407946005774,None,1,,,,,,levi,001,2023-10-27_12h24.55.145,Oddball_task,2022.2.5,59.94391647561336,
standard,soundFiles/1000Hz_-3dBFS_3s_44.1kHz.wav',None,1000,8,1,33,2,,,,,144.9992945999984,145.982396899999,145.98366459000536,147.98248020000756,148.44922550000774,3.4354059258733867,None,1,,146.98318650000147,,,,levi,001,2023-10-27_12h24.55.145,Oddball_task,2022.2.5,59.94391647561336,
standard,soundFiles/1000Hz_-3dBFS_3s_44.1kHz.wav',None,1000,8,2,34,0,,,,,148.44922550000774,149.43252070000744,149.4329212900033,151.43116710000322,151.23213750000286,2.775577875806976,None,1,,,,,,levi,001,2023-10-27_12h24.55.145,Oddball_task,2022.2.5,59.94391647561336,
target,soundFiles/1200Hz_-3dBFS_3s_44.1kHz.wav',t,2000,8,3,35,3,,,,,151.43116710000322,152.43116269999882,152.43178799000307,154.43306830000074,153.7828171000001,2.3392960367361577,t,1,1.0535087999887764,,,,,levi,001,2023-10-27_12h24.55.145,Oddball_task,2022.2.5,59.94391647561336,
standard,soundFiles/1000Hz_-3dBFS_3s_44.1kHz.wav',None,1000,9,0,36,2,,,,,154.43306830000074,155.43116439999721,155.43191039000376,157.4315091000026,157.9816021000006,3.547201207631524,None,1,,,,,,levi,001,2023-10-27_12h24.55.145,Oddball_task,2022.2.5,59.94391647561336,
target,soundFiles/1200Hz_-3dBFS_3s_44.1kHz.wav',t,2000,9,1,37,3,,,,,157.9816021000006,158.98273390000395,158.9814923900107,160.99720090000483,160.51498810001067,2.5194337171415877,t,1,0.9010158999881241,,,,,levi,001,2023-10-27_12h24.55.145,Oddball_task,2022.2.5,59.94391647561336,
standard,soundFiles/1000Hz_-3dBFS_3s_44.1kHz.wav',None,1000,9,2,38,1,,,,,160.99720090000483,161.99822380000842,161.99829089001142,163.99716009999975,164.9317904000054,3.924055921204694,None,1,,,,,,levi,001,2023-10-27_12h24.55.145,Oddball_task,2022.2.5,59.94391647561336,
standard,soundFiles/1000Hz_-3dBFS_3s_44.1kHz.wav',None,1000,9,3,39,0,,,,,164.9317904000054,165.9307189000101,165.93162909000094,167.93088860000717,167.03105859999778,2.0912787924421954,None,1,,,,,,levi,001,2023-10-27_12h24.55.145,Oddball_task,2022.2.5,59.94391647561336,
target,soundFiles/1200Hz_-3dBFS_3s_44.1kHz.wav',t,2000,10,0,40,3,,,,,167.93088860000717,168.93111430000863,168.93127779000352,170.9310703000083,171.91427930000646,3.9699756878830934,t,1,0.85003639999195,,,,,levi,001,2023-10-27_12h24.55.145,Oddball_task,2022.2.5,59.94391647561336,
standard,soundFiles/1000Hz_-3dBFS_3s_44.1kHz.wav',None,1000,10,1,41,1,,,,,171.91427930000646,172.91516950000369,172.91430039000844,174.93065770000976,174.81460030000017,2.885181808460066,None,1,,,,,,levi,001,2023-10-27_12h24.55.145,Oddball_task,2022.2.5,59.94391647561336,
standard,soundFiles/1000Hz_-3dBFS_3s_44.1kHz.wav',None,1000,10,2,42,0,,,,,174.93065770000976,175.93016990000615,175.92984578999895,177.92922600000747,178.33018679999805,3.385407962514986,None,1,,,,,,levi,001,2023-10-27_12h24.55.145,Oddball_task,2022.2.5,59.94391647561336,
standard,soundFiles/1000Hz_-3dBFS_3s_44.1kHz.wav',None,1000,10,3,43,2,,,,,178.33018679999805,179.33131870000216,179.33227669000772,181.34799020001083,181.8473304000072,3.505615417307501,None,1,,,,,,levi,001,2023-10-27_12h24.55.145,Oddball_task,2022.2.5,59.94391647561336,
standard,soundFiles/1000Hz_-3dBFS_3s_44.1kHz.wav',None,1000,11,0,44,1,,,,,181.8473304000072,182.84708310000133,182.84650029000332,184.84758130001137,184.02995670000382,2.169002459724419,None,1,,,,,,levi,001,2023-10-27_12h24.55.145,Oddball_task,2022.2.5,59.94391647561336,
standard,soundFiles/1000Hz_-3dBFS_3s_44.1kHz.wav',None,1000,11,1,45,2,,,,,184.84758130001137,185.84732220000296,185.84647609000822,187.8630603000056,187.91402390001167,3.0564598715167026,None,1,,,,,,levi,001,2023-10-27_12h24.55.145,Oddball_task,2022.2.5,59.94391647561336,
target,soundFiles/1200Hz_-3dBFS_3s_44.1kHz.wav',t,2000,11,2,46,3,,,,,187.91402390001167,188.9140855000005,188.91311259000068,190.92896530000144,191.84817450000264,3.9164832263448117,t,1,0.7855720999941695,,,,,levi,001,2023-10-27_12h24.55.145,Oddball_task,2022.2.5,59.94391647561336,
standard,soundFiles/1000Hz_-3dBFS_3s_44.1kHz.wav',None,1000,11,3,47,0,,,,,191.84817450000264,192.84573790000286,192.8450258900106,194.84708360000513,194.8138764000032,2.9509985453291785,None,1,,,,,,levi,001,2023-10-27_12h24.55.145,Oddball_task,2022.2.5,59.94391647561336,
standard,soundFiles/1000Hz_-3dBFS_3s_44.1kHz.wav',None,1000,12,0,48,0,,,,,194.84708360000513,195.8466907999973,195.8456507900104,197.86201250000158,197.64565250001033,2.7984280339711205,None,1,,,,,,levi,001,2023-10-27_12h24.55.145,Oddball_task,2022.2.5,59.94391647561336,
target,soundFiles/1200Hz_-3dBFS_3s_44.1kHz.wav',t,2000,12,1,49,3,,,,,197.86201250000158,198.8623641000013,198.86320078999998,200.86203350000142,201.69594050000887,3.8279341636839774,t,1,0.767646499996772,,,,,levi,001,2023-10-27_12h24.55.145,Oddball_task,2022.2.5,59.94391647561336,
standard,soundFiles/1000Hz_-3dBFS_3s_44.1kHz.wav',None,1000,12,2,50,2,,,,,201.69594050000887,202.6946891999978,202.69818068999885,204.69613370001025,204.4287164999987,2.7298241183769734,None,1,,,,,,levi,001,2023-10-27_12h24.55.145,Oddball_task,2022.2.5,59.94391647561336,
standard,soundFiles/1000Hz_-3dBFS_3s_44.1kHz.wav',None,1000,12,3,51,1,,,,,204.69613370001025,205.69577220000792,205.69664729000797,207.69528759999957,207.38019209999766,2.6742026029180668,None,1,,,,,,levi,001,2023-10-27_12h24.55.145,Oddball_task,2022.2.5,59.94391647561336,
standard,soundFiles/1000Hz_-3dBFS_3s_44.1kHz.wav',None,1000,13,0,52,2,,,,,207.69528759999957,208.6955125000095,208.6955957900049,210.69569300000148,209.9280848000053,2.230518087064245,None,1,,,,,,levi,001,2023-10-27_12h24.55.145,Oddball_task,2022.2.5,59.94391647561336,
standard,soundFiles/1000Hz_-3dBFS_3s_44.1kHz.wav',None,1000,13,1,53,1,,,,,210.69569300000148,211.69774270000926,211.69603929000587,213.71245390000695,213.01276589999907,2.302900912086404,None,1,,,,,,levi,001,2023-10-27_12h24.55.145,Oddball_task,2022.2.5,59.94391647561336,
target,soundFiles/1200Hz_-3dBFS_3s_44.1kHz.wav',t,2000,13,2,54,3,,,,,213.71245390000695,214.69496690000233,214.69599909000536,216.6954126000055,217.3111796000012,3.592062898795354,t,1,0.8492776999919442,,,,,levi,001,2023-10-27_12h24.55.145,Oddball_task,2022.2.5,59.94391647561336,
standard,soundFiles/1000Hz_-3dBFS_3s_44.1kHz.wav',None,1000,13,3,55,0,,,,,217.3111796000012,218.3124766999972,218.31136939000717,220.32791410000937,219.47747730000992,2.158617540720987,None,1,,,,,,levi,001,2023-10-27_12h24.55.145,Oddball_task,2022.2.5,59.94391647561336,
standard,soundFiles/1000Hz_-3dBFS_3s_44.1kHz.wav',None,1000,14,0,56,2,,,,,220.32791410000937,221.3283572000073,221.3283827899999,223.32781020000402,222.66111090000777,2.326446719324905,None,1,,,,,,levi,001,2023-10-27_12h24.55.145,Oddball_task,2022.2.5,59.94391647561336,
standard,soundFiles/1000Hz_-3dBFS_3s_44.1kHz.wav',None,1000,14,1,57,0,,,,,223.32781020000402,224.32784759999777,224.32816108999978,226.32745820000127,225.49354590001167,2.164758719044311,None,1,,,,,,levi,001,2023-10-27_12h24.55.145,Oddball_task,2022.2.5,59.94391647561336,
target,soundFiles/1200Hz_-3dBFS_3s_44.1kHz.wav',t,2000,14,2,58,3,,,,,226.32745820000127,227.32698700000765,227.32733709001187,229.32661550000194,229.66083950000757,3.330881556895144,t,1,1.0739044999936596,,,,,levi,001,2023-10-27_12h24.55.145,Oddball_task,2022.2.5,59.94391647561336,
standard,soundFiles/1000Hz_-3dBFS_3s_44.1kHz.wav',None,1000,14,3,59,1,,,,,229.66083950000757,230.6605763000116,230.66164679000067,232.66068880000967,231.97966910000832,2.304312479519078,None,1,,231.66242819999752,,,,levi,001,2023-10-27_12h24.55.145,Oddball_task,2022.2.5,59.94391647561336,
standard,soundFiles/1000Hz_-3dBFS_3s_44.1kHz.wav',None,1000,15,0,60,2,,,,,232.66068880000967,233.66063589999976,233.66114259000315,235.65994120000687,235.42702940000163,2.759525338172426,None,1,,,,,,levi,001,2023-10-27_12h24.55.145,Oddball_task,2022.2.5,59.94391647561336,
standard,soundFiles/1000Hz_-3dBFS_3s_44.1kHz.wav',None,1000,15,1,61,0,,,,,235.65994120000687,236.6606415999995,236.66129239000875,238.66024070000276,238.39402720000362,2.7322199937652734,None,1,,,,,,levi,001,2023-10-27_12h24.55.145,Oddball_task,2022.2.5,59.94391647561336,
target,soundFiles/1200Hz_-3dBFS_3s_44.1kHz.wav',t,2000,15,2,62,3,,,,,238.66024070000276,239.66182990001107,239.6605388900047,241.6773266000091,241.54439670000284,2.870447857635681,t,1,0.8663304999936372,,,,,levi,001,2023-10-27_12h24.55.145,Oddball_task,2022.2.5,59.94391647561336,
standard,soundFiles/1000Hz_-3dBFS_3s_44.1kHz.wav',None,1000,15,3,63,1,,,,,241.6773266000091,242.67814600000565,242.6770812900053,244.69360400000005,245.5095416999975,3.8076231660497015,None,1,,,,,,levi,001,2023-10-27_12h24.55.145,Oddball_task,2022.2.5,59.94391647561336,
standard,soundFiles/1000Hz_-3dBFS_3s_44.1kHz.wav',None,1000,16,0,64,1,,,,,245.5095416999975,246.4944841000106,246.49351379000146,248.49449540000933,248.29468260001158,2.777734057057743,None,1,,,,,,levi,001,2023-10-27_12h24.55.145,Oddball_task,2022.2.5,59.94391647561336,
target,soundFiles/1200Hz_-3dBFS_3s_44.1kHz.wav',t,2000,16,1,65,3,,,,,248.49449540000933,249.49415310000768,249.49339539000212,251.51003640001,251.54320440000447,3.0404563907044073,t,1,0.9005955000029644,,,,,levi,001,2023-10-27_12h24.55.145,Oddball_task,2022.2.5,59.94391647561336,
standard,soundFiles/1000Hz_-3dBFS_3s_44.1kHz.wav',None,1000,16,2,66,2,,,,,251.54320440000447,252.5436655000085,252.54413499000512,254.5440074000071,254.14328780000506,2.5966127319937415,None,1,,,,,,levi,001,2023-10-27_12h24.55.145,Oddball_task,2022.2.5,59.94391647561336,
standard,soundFiles/1000Hz_-3dBFS_3s_44.1kHz.wav',None,1000,16,3,67,0,,,,,254.5440074000071,255.54294939999818,255.54388709000924,257.54365069999767,258.10907180000504,3.550612193200184,None,1,,,,,,levi,001,2023-10-27_12h24.55.145,Oddball_task,2022.2.5,59.94391647561336,
standard,soundFiles/1000Hz_-3dBFS_3s_44.1kHz.wav',None,1000,17,0,68,0,,,,,258.10907180000504,259.09350300001097,259.09424539000463,261.09277519999887,260.9934035000042,2.8734426578698913,None,1,,,,,,levi,001,2023-10-27_12h24.55.145,Oddball_task,2022.2.5,59.94391647561336,
standard,soundFiles/1000Hz_-3dBFS_3s_44.1kHz.wav',None,1000,17,1,69,1,,,,,261.09277519999887,262.09288370001013,262.09262719000833,264.09350300001097,263.82644080001046,2.7322120227098,None,1,,,,,,levi,001,2023-10-27_12h24.55.145,Oddball_task,2022.2.5,59.94391647561336,
target,soundFiles/1200Hz_-3dBFS_3s_44.1kHz.wav',t,2000,17,2,70,3,,,,,264.09350300001097,265.0934127000073,265.0924251900127,267.0931913000095,267.5094795000041,3.411186707163273,t,1,1.7394535999919754,,,,,levi,001,2023-10-27_12h24.55.145,Oddball_task,2022.2.5,59.94391647561336,
standard,soundFiles/1000Hz_-3dBFS_3s_44.1kHz.wav',None,1000,17,3,71,2,,,,,267.5094795000041,268.50800020000315,268.5095619900079,270.50879669999995,271.5091182000033,3.9936873763997145,None,1,,269.50876589999825,,,,levi,001,2023-10-27_12h24.55.145,Oddball_task,2022.2.5,59.94391647561336,
standard,soundFiles/1000Hz_-3dBFS_3s_44.1kHz.wav',None,1000,18,0,72,0,,,,,271.5091182000033,272.50952540000435,272.5086342900016,274.5254074999975,274.97642600000836,3.4622902882119506,None,1,,,,,,levi,001,2023-10-27_12h24.55.145,Oddball_task,2022.2.5,59.94391647561336,
standard,soundFiles/1000Hz_-3dBFS_3s_44.1kHz.wav',None,1000,18,1,73,2,,,,,274.97642600000836,275.9780734000087,275.974817890003,277.9916110000049,278.34263840000494,3.3584788959937337,None,1,,,,,,levi,001,2023-10-27_12h24.55.145,Oddball_task,2022.2.5,59.94391647561336,
standard,soundFiles/1000Hz_-3dBFS_3s_44.1kHz.wav',None,1000,18,2,74,1,,,,,278.34263840000494,279.3419133999996,279.3416404900039,281.34211389999837,281.55935450000106,3.2019381619922997,None,1,,,,,,levi,001,2023-10-27_12h24.55.145,Oddball_task,2022.2.5,59.94391647561336,
target,soundFiles/1200Hz_-3dBFS_3s_44.1kHz.wav',t,2000,18,3,75,3,,,,,281.55935450000106,282.55747770000016,282.5574379900048,284.55718650000927,284.6741095000034,3.1059322898450787,t,1,0.7747944999864558,,,,,levi,001,2023-10-27_12h24.55.145,Oddball_task,2022.2.5,59.94391647561336,
target,soundFiles/1200Hz_-3dBFS_3s_44.1kHz.wav',t,2000,19,0,76,3,,,,,284.6741095000034,285.6575073999993,285.6606560900094,287.6574277000036,287.57513830000244,2.8880769319509336,t,1,0.8212541999819223,,,,,levi,001,2023-10-27_12h24.55.145,Oddball_task,2022.2.5,59.94391647561336,
standard,soundFiles/1000Hz_-3dBFS_3s_44.1kHz.wav',None,1000,19,1,77,2,,,,,287.6574277000036,288.6576519000082,288.658853890009,290.6575279000099,290.4753631000058,2.8122944329038617,None,1,,,,,,levi,001,2023-10-27_12h24.55.145,Oddball_task,2022.2.5,59.94391647561336,
standard,soundFiles/1000Hz_-3dBFS_3s_44.1kHz.wav',None,1000,19,2,78,0,,,,,290.6575279000099,291.6573261000012,291.65819639000836,293.6574987000058,294.4755082000047,3.815106016265978,None,1,,,,,,levi,001,2023-10-27_12h24.55.145,Oddball_task,2022.2.5,59.94391647561336,
standard,soundFiles/1000Hz_-3dBFS_3s_44.1kHz.wav',None,1000,19,3,79,1,,,,,294.4755082000047,295.47579009999754,295.4738735900013,297.4900908999989,297.9746911999973,3.499222982113689,None,1,,,,,,levi,001,2023-10-27_12h24.55.145,Oddball_task,2022.2.5,59.94391647561336,
standard,soundFiles/1000Hz_-3dBFS_3s_44.1kHz.wav',None,1000,20,0,80,0,,,,,297.9746911999973,298.97337900000275,298.9727922900041,300.9742370000022,301.55656710000767,3.5811192801186413,None,1,,,,,,levi,001,2023-10-27_12h24.55.145,Oddball_task,2022.2.5,59.94391647561336,
target,soundFiles/1200Hz_-3dBFS_3s_44.1kHz.wav',t,2000,20,1,81,3,,,,,301.55656710000767,302.55657850000716,302.557113390007,304.5573243000108,303.84056090000377,2.2697191295358214,t,1,0.8582109999842942,,,,,levi,001,2023-10-27_12h24.55.145,Oddball_task,2022.2.5,59.94391647561336,
standard,soundFiles/1000Hz_-3dBFS_3s_44.1kHz.wav',None,1000,20,2,82,1,,,,,304.5573243000108,305.55681360000744,305.5578378900085,307.55695710000873,306.9427032000094,2.3722701838362767,None,1,,,,,,levi,001,2023-10-27_12h24.55.145,Oddball_task,2022.2.5,59.94391647561336,
standard,soundFiles/1000Hz_-3dBFS_3s_44.1kHz.wav',None,1000,20,3,83,2,,,,,307.55695710000873,308.5573509000096,308.557119390009,310.5577084000106,311.2230794000061,3.6528064037639085,None,1,,,,,,levi,001,2023-10-27_12h24.55.145,Oddball_task,2022.2.5,59.94391647561336,
standard,soundFiles/1000Hz_-3dBFS_3s_44.1kHz.wav',None,1000,21,0,84,1,,,,,311.2230794000061,312.2238951000036,312.22312279000323,314.2224501000019,314.7069726000045,3.4797605120681587,None,1,,,,,,levi,001,2023-10-27_12h24.55.145,Oddball_task,2022.2.5,59.94391647561336,
standard,soundFiles/1000Hz_-3dBFS_3s_44.1kHz.wav',None,1000,21,1,85,2,,,,,314.7069726000045,315.68961370000034,315.69087869000066,317.6895871000015,317.6071059000096,2.895339314033213,None,1,,,,,,levi,001,2023-10-27_12h24.55.145,Oddball_task,2022.2.5,59.94391647561336,
target,soundFiles/1200Hz_-3dBFS_3s_44.1kHz.wav',t,2000,21,2,86,3,,,,,317.6895871000015,318.68866120000894,318.6900825900069,320.68943410000065,320.89075050000974,3.1906536077265475,t,1,0.7195225999894319,,,,,levi,001,2023-10-27_12h24.55.145,Oddball_task,2022.2.5,59.94391647561336,
standard,soundFiles/1000Hz_-3dBFS_3s_44.1kHz.wav',None,1000,21,3,87,0,,,,,320.89075050000974,321.88996210000187,321.88960869000437,323.8901437000022,323.3762201000063,2.4758185436401448,None,1,,,,,,levi,001,2023-10-27_12h24.55.145,Oddball_task,2022.2.5,59.94391647561336,
standard,soundFiles/1000Hz_-3dBFS_3s_44.1kHz.wav',None,1000,22,0,88,0,,,,,323.8901437000022,324.8911103999999,324.88909089000515,326.90620540000964,327.7890119000076,3.8952696965357325,None,1,,,,,,levi,001,2023-10-27_12h24.55.145,Oddball_task,2022.2.5,59.94391647561336,
target,soundFiles/1200Hz_-3dBFS_3s_44.1kHz.wav',t,2000,22,1,89,3,,,,,327.7890119000076,328.7888556000107,328.7906987900045,330.78885789999913,331.34010050000506,3.5454855610952114,t,1,0.8008270999853266,,,,,levi,001,2023-10-27_12h24.55.145,Oddball_task,2022.2.5,59.94391647561336,
standard,soundFiles/1000Hz_-3dBFS_3s_44.1kHz.wav',None,1000,22,2,90,2,,,,,331.34010050000506,332.3394847000018,332.3384554900098,334.3562815000041,333.7222664000001,2.376484173437822,None,1,,,,,,levi,001,2023-10-27_12h24.55.145,Oddball_task,2022.2.5,59.94391647561336,
standard,soundFiles/1000Hz_-3dBFS_3s_44.1kHz.wav',None,1000,22,3,91,1,,,,,334.3562815000041,335.3556193999975,335.35561799000277,337.3553718000039,337.05548570000974,2.686536861202652,None,1,,,,,,levi,001,2023-10-27_12h24.55.145,Oddball_task,2022.2.5,59.94391647561336,
standard,soundFiles/1000Hz_-3dBFS_3s_44.1kHz.wav',None,1000,23,0,92,2,,,,,337.3553718000039,338.34050520000164,338.34083049000617,340.354636700009,339.62225100000796,2.2564307732673075,None,1,,,,,,levi,001,2023-10-27_12h24.55.145,Oddball_task,2022.2.5,59.94391647561336,
standard,soundFiles/1000Hz_-3dBFS_3s_44.1kHz.wav',None,1000,23,1,93,1,,,,,340.354636700009,341.3551335000084,341.35577899000634,343.3549652000074,343.78813549999904,3.4313543976806162,None,1,,,,,,levi,001,2023-10-27_12h24.55.145,Oddball_task,2022.2.5,59.94391647561336,
target,soundFiles/1200Hz_-3dBFS_3s_44.1kHz.wav',t,2000,23,2,94,3,,,,,343.78813549999904,344.7881398000027,344.78914709000526,346.7875233000086,347.154322900009,3.35672748123113,t,1,0.8818303999869386,,,,,levi,001,2023-10-27_12h24.55.145,Oddball_task,2022.2.5,59.94391647561336,
standard,soundFiles/1000Hz_-3dBFS_3s_44.1kHz.wav',None,1000,23,3,95,0,,,,,347.154322900009,348.1570484999975,348.1540355900055,350.1709373000049,349.4551896000048,2.2906709128838907,None,1,,,,,,levi,001,2023-10-27_12h24.55.145,Oddball_task,2022.2.5,59.94391647561336,
standard,soundFiles/1000Hz_-3dBFS_3s_44.1kHz.wav',None,1000,24,0,96,0,,,,,350.1709373000049,351.154546100006,351.15492459000814,353.15438130000257,352.28871880000224,2.114221106293341,None,1,,,,,,levi,001,2023-10-27_12h24.55.145,Oddball_task,2022.2.5,59.94391647561336,
target,soundFiles/1200Hz_-3dBFS_3s_44.1kHz.wav',t,2000,24,1,97,3,,,,,353.15438130000257,354.1547472000093,354.15428308999833,356.1540556000109,356.08712450000166,2.9240939981309593,t,1,1.039256399992155,,,,,levi,001,2023-10-27_12h24.55.145,Oddball_task,2022.2.5,59.94391647561336,
standard,soundFiles/1000Hz_-3dBFS_3s_44.1kHz.wav',None,1000,24,2,98,1,,,,,356.1540556000109,357.15624599999865,357.1545749900091,359.17015250000986,359.5203811000101,3.367273435097524,None,1,,,,,,levi,001,2023-10-27_12h24.55.145,Oddball_task,2022.2.5,59.94391647561336,
standard,soundFiles/1000Hz_-3dBFS_3s_44.1kHz.wav',None,1000,24,3,99,2,,,,,359.5203811000101,360.5212406000064,360.52133859001185,362.52204700000584,362.4867174000101,2.96171686852568,None,1,,,,,,levi,001,2023-10-27_12h24.55.145,Oddball_task,2022.2.5,59.94391647561336,
standard,soundFiles/1000Hz_-3dBFS_3s_44.1kHz.wav',None,1000,25,0,100,1,,,,,362.52204700000584,363.5204509000032,363.52151349000485,365.5203831000108,366.4205750999972,3.885566606447173,None,1,,,,,,levi,001,2023-10-27_12h24.55.145,Oddball_task,2022.2.5,59.94391647561336,
standard,soundFiles/1000Hz_-3dBFS_3s_44.1kHz.wav',None,1000,25,1,101,0,,,,,366.4205750999972,367.4206855000084,367.4214149900057,369.42039189999923,369.004477399998,2.583270864950232,None,1,,,,,,levi,001,2023-10-27_12h24.55.145,Oddball_task,2022.2.5,59.94391647561336,
target,soundFiles/1200Hz_-3dBFS_3s_44.1kHz.wav',t,2000,25,2,102,3,,,,,369.42039189999923,370.42036570000346,370.4211498900098,372.4209067000047,371.9231787000026,2.493219030142207,t,1,0.8135411999828648,,,,,levi,001,2023-10-27_12h24.55.145,Oddball_task,2022.2.5,59.94391647561336,
standard,soundFiles/1000Hz_-3dBFS_3s_44.1kHz.wav',None,1000,25,3,103,2,,,,,372.4209067000047,373.4199689000088,373.41891799001166,375.4202886999992,374.52034030000505,2.0886635885873535,None,1,,374.4204499000043,,,,levi,001,2023-10-27_12h24.55.145,Oddball_task,2022.2.5,59.94391647561336,
standard,soundFiles/1000Hz_-3dBFS_3s_44.1kHz.wav',None,1000,26,0,104,0,,,,,375.4202886999992,376.42050839999865,376.42003259000046,378.42065820000425,379.00335240000277,3.5835034813854025,None,1,,,,,,levi,001,2023-10-27_12h24.55.145,Oddball_task,2022.2.5,59.94391647561336,
target,soundFiles/1200Hz_-3dBFS_3s_44.1kHz.wav',t,2000,26,1,105,3,,,,,379.00335240000277,380.0032063000108,380.00355048999916,382.00406390000717,382.1537982000009,3.138888332423389,t,1,0.8426827999937814,,,,,levi,001,2023-10-27_12h24.55.145,Oddball_task,2022.2.5,59.94391647561336,
standard,soundFiles/1000Hz_-3dBFS_3s_44.1kHz.wav',None,1000,26,2,106,2,,,,,382.1537982000009,383.1529931999976,383.1527506900005,385.1531348999997,384.53573610000603,2.379842549947248,None,1,,,,,,levi,001,2023-10-27_12h24.55.145,Oddball_task,2022.2.5,59.94391647561336,
standard,soundFiles/1000Hz_-3dBFS_3s_44.1kHz.wav',None,1000,26,3,107,1,,,,,385.1531348999997,386.1523118000041,386.15472059001183,388.152728800007,388.40292600000976,3.249915536783684,None,1,,,,,,levi,001,2023-10-27_12h24.55.145,Oddball_task,2022.2.5,59.94391647561336,
target,soundFiles/1200Hz_-3dBFS_3s_44.1kHz.wav',t,2000,27,0,108,3,,,,,388.40292600000976,389.4026808000053,389.40306008999903,391.40283669999917,391.1537721000059,2.747375417140524,t,1,1.0400486999860732,,,,,levi,001,2023-10-27_12h24.55.145,Oddball_task,2022.2.5,59.94391647561336,
standard,soundFiles/1000Hz_-3dBFS_3s_44.1kHz.wav',None,1000,27,1,109,1,,,,,391.40283669999917,392.4018417000043,392.40262709000524,394.4032700000098,393.57080020000285,2.161893297344867,None,1,,,,,,levi,001,2023-10-27_12h24.55.145,Oddball_task,2022.2.5,59.94391647561336,
standard,soundFiles/1000Hz_-3dBFS_3s_44.1kHz.wav',None,1000,27,2,110,2,,,,,394.4032700000098,395.4015846000111,395.40269508999916,397.4011690000043,398.23760459999903,3.8267546075775893,None,1,,,,,,levi,001,2023-10-27_12h24.55.145,Oddball_task,2022.2.5,59.94391647561336,
standard,soundFiles/1000Hz_-3dBFS_3s_44.1kHz.wav',None,1000,27,3,111,0,,,,,398.23760459999903,399.23743660000036,399.2355361900103,401.2523775000009,401.40176280000014,3.1530840958147017,None,1,,,,,,levi,001,2023-10-27_12h24.55.145,Oddball_task,2022.2.5,59.94391647561336,
standard,soundFiles/1000Hz_-3dBFS_3s_44.1kHz.wav',None,1000,28,0,112,2,,,,,401.40176280000014,402.4019261000067,402.4025685900109,404.4012511000037,404.13457989999733,2.72117270681208,None,1,,,,,,levi,001,2023-10-27_12h24.55.145,Oddball_task,2022.2.5,59.94391647561336,
target,soundFiles/1200Hz_-3dBFS_3s_44.1kHz.wav',t,2000,28,1,113,3,,,,,404.4012511000037,405.40354300000763,405.40193989001125,407.4025732000009,408.3012228000007,3.8949639811270744,t,1,0.6752877999970224,,,,,levi,001,2023-10-27_12h24.55.145,Oddball_task,2022.2.5,59.94391647561336,
standard,soundFiles/1000Hz_-3dBFS_3s_44.1kHz.wav',None,1000,28,2,114,0,,,,,408.3012228000007,409.3006858000008,409.3007813900025,411.301681500001,411.6011581000057,3.2867218501223627,None,1,,,,,,levi,001,2023-10-27_12h24.55.145,Oddball_task,2022.2.5,59.94391647561336,
standard,soundFiles/1000Hz_-3dBFS_3s_44.1kHz.wav',None,1000,28,3,115,1,,,,,411.6011581000057,412.6012769000081,412.6017923900057,414.6010837000067,415.03466930000286,3.43166691309989,None,1,,,,,,levi,001,2023-10-27_12h24.55.145,Oddball_task,2022.2.5,59.94391647561336,
target,soundFiles/1200Hz_-3dBFS_3s_44.1kHz.wav',t,2000,29,0,116,3,,,,,415.03466930000286,416.0343073999975,416.0348535900106,418.03515770001104,417.6174638000084,2.5704774525742877,t,1,0.7092960000009043,,,,,levi,001,2023-10-27_12h24.55.145,Oddball_task,2022.2.5,59.94391647561336,
standard,soundFiles/1000Hz_-3dBFS_3s_44.1kHz.wav',None,1000,29,1,117,1,,,,,418.03515770001104,419.0342619000003,419.03516979000267,421.0333868000016,420.08543630001077,2.0491026870564144,None,1,,,,,,levi,001,2023-10-27_12h24.55.145,Oddball_task,2022.2.5,59.94391647561336,
standard,soundFiles/1000Hz_-3dBFS_3s_44.1kHz.wav',None,1000,29,2,118,2,,,,,421.0333868000016,422.03454890000285,422.0333347899999,424.03418980000424,423.1851394999976,2.1380920063972786,None,1,,,,,,levi,001,2023-10-27_12h24.55.145,Oddball_task,2022.2.5,59.94391647561336,
standard,soundFiles/1000Hz_-3dBFS_3s_44.1kHz.wav',None,1000,29,3,119,0,,,,,424.03418980000424,425.0340009000065,425.03483179000466,427.0339210000093,426.8851735000062,2.8380512304386842,None,1,,,,,,levi,001,2023-10-27_12h24.55.145,Oddball_task,2022.2.5,59.94391647561336,
standard,soundFiles/1000Hz_-3dBFS_3s_44.1kHz.wav',None,1000,30,0,120,0,,,,,427.0339210000093,428.0344741000008,428.0344298900003,430.0335433,429.6335955000104,2.5860611463524643,None,1,,,,,,levi,001,2023-10-27_12h24.55.145,Oddball_task,2022.2.5,59.94391647561336,
target,soundFiles/1200Hz_-3dBFS_3s_44.1kHz.wav',t,2000,30,1,121,3,,,,,430.0335433,431.03351370000746,431.0350909899993,433.03330950000964,433.70019709999906,3.6406255883117127,t,1,0.8443864999862853,,,,,levi,001,2023-10-27_12h24.55.145,Oddball_task,2022.2.5,59.94391647561336,
standard,soundFiles/1000Hz_-3dBFS_3s_44.1kHz.wav',None,1000,30,2,122,1,,,,,433.70019709999906,434.68412089999765,434.68360959000563,436.6992156000051,437.10012230000575,3.3930583045879352,None,1,,,,,,levi,001,2023-10-27_12h24.55.145,Oddball_task,2022.2.5,59.94391647561336,
standard,soundFiles/1000Hz_-3dBFS_3s_44.1kHz.wav',None,1000,30,3,123,2,,,,,437.10012230000575,438.09907570001087,438.09937049000143,440.0987693000061,440.5830100000021,3.4676202435829016,None,1,,,,,,levi,001,2023-10-27_12h24.55.145,Oddball_task,2022.2.5,59.94391647561336,
standard,soundFiles/1000Hz_-3dBFS_3s_44.1kHz.wav',None,1000,31,0,124,1,,,,,440.5830100000021,441.5833146000077,441.5831266900044,443.58300700000837,444.23201459999837,3.6488921012441544,None,1,,,,,,levi,001,2023-10-27_12h24.55.145,Oddball_task,2022.2.5,59.94391647561336,
standard,soundFiles/1000Hz_-3dBFS_3s_44.1kHz.wav',None,1000,31,1,125,0,,,,,444.23201459999837,445.23332970000047,445.2343073900105,447.23323650000384,448.099111500007,3.8631594961547466,None,1,,,,,,levi,001,2023-10-27_12h24.55.145,Oddball_task,2022.2.5,59.94391647561336,
target,soundFiles/1200Hz_-3dBFS_3s_44.1kHz.wav',t,2000,31,2,126,3,,,,,448.099111500007,449.0993950999982,449.09957799000983,451.0990915000002,450.41590940000606,2.315938479630264,t,1,0.7555545999930473,,,,,levi,001,2023-10-27_12h24.55.145,Oddball_task,2022.2.5,59.94391647561336,
standard,soundFiles/1000Hz_-3dBFS_3s_44.1kHz.wav',None,1000,31,3,127,2,,,,,451.0990915000002,452.0990727000026,452.1022874900067,454.10115220000444,453.3657092000067,2.258714453454138,None,1,,,,,,levi,001,2023-10-27_12h24.55.145,Oddball_task,2022.2.5,59.94391647561336,
standard,soundFiles/1000Hz_-3dBFS_3s_44.1kHz.wav',None,1000,32,0,128,2,,,,,454.10115220000444,455.09846870000183,455.10000949000676,457.10008740000194,456.3498485000018,2.242646786172994,None,1,,,,,,levi,001,2023-10-27_12h24.55.145,Oddball_task,2022.2.5,59.94391647561336,
standard,soundFiles/1000Hz_-3dBFS_3s_44.1kHz.wav',None,1000,32,1,129,0,,,,,457.10008740000194,458.0982526000007,458.09993559001157,460.09826490000705,459.34844080000767,2.2366490822237477,None,1,,,,,,levi,001,2023-10-27_12h24.55.145,Oddball_task,2022.2.5,59.94391647561336,
standard,soundFiles/1000Hz_-3dBFS_3s_44.1kHz.wav',None,1000,32,2,130,1,,,,,460.09826490000705,461.09835739999835,461.09903489000715,463.09977870000876,463.88217950001126,3.774082300109142,None,1,,,,,,levi,001,2023-10-27_12h24.55.145,Oddball_task,2022.2.5,59.94391647561336,
target,soundFiles/1200Hz_-3dBFS_3s_44.1kHz.wav',t,2000,32,3,131,3,,,,,463.88217950001126,464.8858878000028,464.88078819001237,466.8986828000052,466.74954780000553,2.862610831832928,t,1,0.6072784999996657,,,,,levi,001,2023-10-27_12h24.55.145,Oddball_task,2022.2.5,59.94391647561336,
standard,soundFiles/1000Hz_-3dBFS_3s_44.1kHz.wav',None,1000,33,0,132,2,,,,,466.8986828000052,467.89811540000665,467.89873199000283,469.8982099999994,470.53141470000264,3.6194710388872524,None,1,,,,,,levi,001,2023-10-27_12h24.55.145,Oddball_task,2022.2.5,59.94391647561336,
standard,soundFiles/1000Hz_-3dBFS_3s_44.1kHz.wav',None,1000,33,1,133,1,,,,,470.53141470000264,471.53162090000114,471.53166099000225,473.5307581000088,473.9306862000085,3.392285142755609,None,1,,,,,,levi,001,2023-10-27_12h24.55.145,Oddball_task,2022.2.5,59.94391647561336,
standard,soundFiles/1000Hz_-3dBFS_3s_44.1kHz.wav',None,1000,33,2,134,0,,,,,473.9306862000085,474.9311078000028,474.93190819000154,476.9309476000053,477.4488476999977,3.51722043038147,None,1,,,,,,levi,001,2023-10-27_12h24.55.145,Oddball_task,2022.2.5,59.94391647561336,
target,soundFiles/1200Hz_-3dBFS_3s_44.1kHz.wav',t,2000,33,3,135,3,,,,,477.4488476999977,478.44830139999976,478.447266490008,480.4485340000101,481.0306549000088,3.5676417424773286,t,1,0.7048017999914009,,,,,levi,001,2023-10-27_12h24.55.145,Oddball_task,2022.2.5,59.94391647561336,
standard,soundFiles/1000Hz_-3dBFS_3s_44.1kHz.wav',None,1000,34,0,136,1,,,,,481.0306549000088,482.03119980001065,482.0309478900002,484.03099120000843,484.48194180001155,3.4431314698785465,None,1,,,,,,levi,001,2023-10-27_12h24.55.145,Oddball_task,2022.2.5,59.94391647561336,
target,soundFiles/1200Hz_-3dBFS_3s_44.1kHz.wav',t,2000,34,1,137,3,,,,,484.48194180001155,485.48244310000155,485.4814175900086,487.4975723000098,487.34828520000156,2.8592543001244994,t,1,0.8351361999957589,,,,,levi,001,2023-10-27_12h24.55.145,Oddball_task,2022.2.5,59.94391647561336,
standard,soundFiles/1000Hz_-3dBFS_3s_44.1kHz.wav',None,1000,34,2,138,2,,,,,487.4975723000098,488.54102180000336,488.5028699900125,490.5483426999999,491.19846790000156,3.700673645367516,None,1,,,,,,levi,001,2023-10-27_12h24.55.145,Oddball_task,2022.2.5,59.94391647561336,
standard,soundFiles/1000Hz_-3dBFS_3s_44.1kHz.wav',None,1000,34,3,139,0,,,,,491.19846790000156,492.1967333000066,492.197813190009,494.1968013000005,493.38146420000703,2.1818231237592176,None,1,,493.19671319999907,,,,levi,001,2023-10-27_12h24.55.145,Oddball_task,2022.2.5,59.94391647561336,
standard,soundFiles/1000Hz_-3dBFS_3s_44.1kHz.wav',None,1000,35,0,140,2,,,,,494.1968013000005,495.1978464999993,495.19788339000513,497.21333090000553,496.61530479999783,2.410152910469736,None,1,,,,,,levi,001,2023-10-27_12h24.55.145,Oddball_task,2022.2.5,59.94391647561336,
target,soundFiles/1200Hz_-3dBFS_3s_44.1kHz.wav',t,2000,35,1,141,3,,,,,497.21333090000553,498.1978117000108,498.1986128900011,500.1979207999975,499.5306990000099,2.3152564533583835,t,1,0.7167560999951093,,,,,levi,001,2023-10-27_12h24.55.145,Oddball_task,2022.2.5,59.94391647561336,
standard,soundFiles/1000Hz_-3dBFS_3s_44.1kHz.wav',None,1000,35,2,142,1,,,,,500.1979207999975,501.1971396000008,501.1974876900043,503.1977380000026,503.6471053999994,3.4393959409979904,None,1,,,,,,levi,001,2023-10-27_12h24.55.145,Oddball_task,2022.2.5,59.94391647561336,
standard,soundFiles/1000Hz_-3dBFS_3s_44.1kHz.wav',None,1000,35,3,143,0,,,,,503.6471053999994,504.62982940000074,504.6313538900125,506.6301492000057,506.74705370000447,3.0904588272135154,None,1,,,,,,levi,001,2023-10-27_12h24.55.145,Oddball_task,2022.2.5,59.94391647561336,
standard,soundFiles/1000Hz_-3dBFS_3s_44.1kHz.wav',None,1000,36,0,144,0,,,,,506.74705370000447,507.73025300000154,507.73069409000016,509.72845790001156,509.7620753000083,3.010489579498584,None,1,,,,,,levi,001,2023-10-27_12h24.55.145,Oddball_task,2022.2.5,59.94391647561336,
standard,soundFiles/1000Hz_-3dBFS_3s_44.1kHz.wav',None,1000,36,1,145,2,,,,,509.7620753000083,510.7465123000002,510.74644279001075,512.7472580000031,513.4137660999986,3.6510006845410032,None,1,,,,,,levi,001,2023-10-27_12h24.55.145,Oddball_task,2022.2.5,59.94391647561336,
standard,soundFiles/1000Hz_-3dBFS_3s_44.1kHz.wav',None,1000,36,2,146,1,,,,,513.4137660999986,514.413481800002,514.4125845900111,516.4280455000116,516.4451956999983,3.0216356957970802,None,1,,,,,,levi,001,2023-10-27_12h24.55.145,Oddball_task,2022.2.5,59.94391647561336,
target,soundFiles/1200Hz_-3dBFS_3s_44.1kHz.wav',t,2000,36,3,147,3,,,,,516.4451956999983,517.4295055999974,517.4292255900058,519.4294009000005,520.4144280000037,3.956761849664444,t,1,1.0183704999944894,,,,,levi,001,2023-10-27_12h24.55.145,Oddball_task,2022.2.5,59.94391647561336,
standard,soundFiles/1000Hz_-3dBFS_3s_44.1kHz.wav',None,1000,37,0,148,2,,,,,520.4144280000037,521.41211260001,521.411742390001,523.4127533999999,523.7792961000087,3.3649551619897538,None,1,,,,,,levi,001,2023-10-27_12h24.55.145,Oddball_task,2022.2.5,59.94391647561336,
standard,soundFiles/1000Hz_-3dBFS_3s_44.1kHz.wav',None,1000,37,1,149,0,,,,,523.7792961000087,524.7636767000076,524.7639347900098,526.7620869000093,527.3147714000079,3.5165379423328353,None,1,,,,,,levi,001,2023-10-27_12h24.55.145,Oddball_task,2022.2.5,59.94391647561336,
standard,soundFiles/1000Hz_-3dBFS_3s_44.1kHz.wav',None,1000,37,2,150,1,,,,,527.3147714000079,528.2954438000015,528.2955115900098,530.2947720000084,530.5615745000105,3.248158427663784,None,1,,,,,,levi,001,2023-10-27_12h24.55.145,Oddball_task,2022.2.5,59.94391647561336,
target,soundFiles/1200Hz_-3dBFS_3s_44.1kHz.wav',t,2000,37,3,151,3,,,,,530.5615745000105,531.5611301000026,531.5617985900011,533.5614095000055,532.6953030000004,2.1211253773018344,t,1,0.7205816999921808,,,,,levi,001,2023-10-27_12h24.55.145,Oddball_task,2022.2.5,59.94391647561336,
standard,soundFiles/1000Hz_-3dBFS_3s_44.1kHz.wav',None,1000,38,0,152,0,,,,,533.5614095000055,534.5612097999983,534.5625077900025,536.5603052000079,536.5277991000039,2.953585317278359,None,1,,,,,,levi,001,2023-10-27_12h24.55.145,Oddball_task,2022.2.5,59.94391647561336,
target,soundFiles/1200Hz_-3dBFS_3s_44.1kHz.wav',t,2000,38,1,153,3,,,,,536.5603052000079,537.5609512000083,537.561570889999,539.5607235000061,538.8941839000036,2.3280071803869893,t,1,0.9209637999883853,,,,,levi,001,2023-10-27_12h24.55.145,Oddball_task,2022.2.5,59.94391647561336,
standard,soundFiles/1000Hz_-3dBFS_3s_44.1kHz.wav',None,1000,38,2,154,1,,,,,539.5607235000061,540.5619606000109,540.5620679900006,542.5609036000096,543.1452832000068,3.5843788520500848,None,1,,541.561225700003,,,,levi,001,2023-10-27_12h24.55.145,Oddball_task,2022.2.5,59.94391647561336,
standard,soundFiles/1000Hz_-3dBFS_3s_44.1kHz.wav',None,1000,38,3,155,2,,,,,543.1452832000068,544.1452316000068,544.1444173900076,546.1450520000071,546.2275975000084,3.0713522316187762,None,1,,,,,,levi,001,2023-10-27_12h24.55.145,Oddball_task,2022.2.5,59.94391647561336,
standard,soundFiles/1000Hz_-3dBFS_3s_44.1kHz.wav',None,1000,39,0,156,1,,,,,546.2275975000084,547.2276710000006,547.2286991900022,549.2275853000028,549.3113843000028,3.0823822508987675,None,1,,,,,,levi,001,2023-10-27_12h24.55.145,Oddball_task,2022.2.5,59.94391647561336,
standard,soundFiles/1000Hz_-3dBFS_3s_44.1kHz.wav',None,1000,39,1,157,0,,,,,549.3113843000028,550.3116277000081,550.3106339900099,552.3260676000064,553.0598297000106,3.7373602289818004,None,1,,,,,,levi,001,2023-10-27_12h24.55.145,Oddball_task,2022.2.5,59.94391647561336,
target,soundFiles/1200Hz_-3dBFS_3s_44.1kHz.wav',t,2000,39,2,158,3,,,,,553.0598297000106,554.060495400001,554.0607086900112,556.059903500005,556.5105127999996,3.438131451228899,t,1,0.8668460999906529,,,,,levi,001,2023-10-27_12h24.55.145,Oddball_task,2022.2.5,59.94391647561336,
standard,soundFiles/1000Hz_-3dBFS_3s_44.1kHz.wav',None,1000,39,3,159,2,,,,,556.5105127999996,557.5115041000099,557.5093026900125,559.5261655000068,560.4256206999999,3.9032242697455715,None,1,,,,,,levi,001,2023-10-27_12h24.55.145,Oddball_task,2022.2.5,59.94391647561336,
standard,soundFiles/1000Hz_-3dBFS_3s_44.1kHz.wav',None,1000,40,0,160,1,,,,,560.4256206999999,561.4276994000102,561.4276558900004,563.4431661999988,564.1103108000098,3.684419703979935,None,1,,,,,,levi,001,2023-10-27_12h24.55.145,Oddball_task,2022.2.5,59.94391647561336,
standard,soundFiles/1000Hz_-3dBFS_3s_44.1kHz.wav',None,1000,40,1,161,0,,,,,564.1103108000098,565.1102159000002,565.1102348900007,567.1113655000081,566.6605963000038,2.5388412448374895,None,1,,,,,,levi,001,2023-10-27_12h24.55.145,Oddball_task,2022.2.5,59.94391647561336,
target,soundFiles/1200Hz_-3dBFS_3s_44.1kHz.wav',t,2000,40,2,162,3,,,,,567.1113655000081,568.1094201000087,568.1107067899997,570.1090223000065,569.5939901000093,2.4728536322647994,t,1,0.9352768999815453,,,,,levi,001,2023-10-27_12h24.55.145,Oddball_task,2022.2.5,59.94391647561336,
standard,soundFiles/1000Hz_-3dBFS_3s_44.1kHz.wav',None,1000,40,3,163,2,,,,,570.1090223000065,571.109437799998,571.1103600900082,573.1093396000069,572.3096592000074,2.187973366938505,None,1,,572.1100274000055,,,,levi,001,2023-10-27_12h24.55.145,Oddball_task,2022.2.5,59.94391647561336,
standard,soundFiles/1000Hz_-3dBFS_3s_44.1kHz.wav',None,1000,41,0,164,1,,,,,573.1093396000069,574.1095515000052,574.1100484900074,576.1088740999985,576.8757665000012,3.762809970033417,None,1,,,,,,levi,001,2023-10-27_12h24.55.145,Oddball_task,2022.2.5,59.94391647561336,
standard,soundFiles/1000Hz_-3dBFS_3s_44.1kHz.wav',None,1000,41,1,165,2,,,,,576.8757665000012,577.8754442000063,577.8763112900036,579.8754384000058,580.0264988999988,3.1510361027588667,None,1,,,,,,levi,001,2023-10-27_12h24.55.145,Oddball_task,2022.2.5,59.94391647561336,
target,soundFiles/1200Hz_-3dBFS_3s_44.1kHz.wav',t,2000,41,2,166,3,,,,,580.0264988999988,581.0277406000096,581.0256362900094,583.041575700001,583.9104707000079,3.8669981587018043,t,1,0.7047726999880979,,,,,levi,001,2023-10-27_12h24.55.145,Oddball_task,2022.2.5,59.94391647561336,
standard,soundFiles/1000Hz_-3dBFS_3s_44.1kHz.wav',None,1000,41,3,167,0,,,,,583.9104707000079,584.9084193000017,584.908672590011,586.9088827000087,587.275292300008,3.359009092798037,None,1,,,,,,levi,001,2023-10-27_12h24.55.145,Oddball_task,2022.2.5,59.94391647561336,
standard,soundFiles/1000Hz_-3dBFS_3s_44.1kHz.wav',None,1000,42,0,168,2,,,,,587.275292300008,588.2763457999972,588.2772800900115,590.2750802000082,589.6260417000012,2.3388025476463303,None,1,,,,,,levi,001,2023-10-27_12h24.55.145,Oddball_task,2022.2.5,59.94391647561336,
standard,soundFiles/1000Hz_-3dBFS_3s_44.1kHz.wav',None,1000,42,1,169,1,,,,,590.2750802000082,591.2760865000018,591.2760284900127,593.2772803000116,594.2770754000085,3.993444843666861,None,1,,,,,,levi,001,2023-10-27_12h24.55.145,Oddball_task,2022.2.5,59.94391647561336,
standard,soundFiles/1000Hz_-3dBFS_3s_44.1kHz.wav',None,1000,42,2,170,0,,,,,594.2770754000085,595.2760870000056,595.2743212900081,597.2914689000027,596.7582202000049,2.476989174779762,None,1,,,,,,levi,001,2023-10-27_12h24.55.145,Oddball_task,2022.2.5,59.94391647561336,
target,soundFiles/1200Hz_-3dBFS_3s_44.1kHz.wav',t,2000,42,3,171,3,,,,,597.2914689000027,598.2933952000021,598.2931161900036,600.3085934999981,599.5915806999983,2.2891333432203593,t,1,0.7706956999900285,,,,,levi,001,2023-10-27_12h24.55.145,Oddball_task,2022.2.5,59.94391647561336,
standard,soundFiles/1000Hz_-3dBFS_3s_44.1kHz.wav',None,1000,43,0,172,2,,,,,600.3085934999981,601.2914098000037,601.292725390011,603.2905731000064,603.1568316000048,2.846456556750356,None,1,,,,,,levi,001,2023-10-27_12h24.55.145,Oddball_task,2022.2.5,59.94391647561336,
standard,soundFiles/1000Hz_-3dBFS_3s_44.1kHz.wav',None,1000,43,1,173,0,,,,,603.2905731000064,604.2914261999977,604.292522290007,606.2911062000057,606.4912058000045,3.1919864647519223,None,1,,,,,,levi,001,2023-10-27_12h24.55.145,Oddball_task,2022.2.5,59.94391647561336,
target,soundFiles/1200Hz_-3dBFS_3s_44.1kHz.wav',t,2000,43,2,174,3,,,,,606.4912058000045,607.4912659999973,607.4920051900102,609.4905239000072,610.0896340000036,3.5823649776216033,t,1,0.8955489999789279,,,,,levi,001,2023-10-27_12h24.55.145,Oddball_task,2022.2.5,59.94391647561336,
standard,soundFiles/1000Hz_-3dBFS_3s_44.1kHz.wav',None,1000,43,3,175,1,,,,,610.0896340000036,611.0774063999997,611.075810890003,613.0908747000067,613.2420284000109,3.147397841228046,None,1,,,,,,levi,001,2023-10-27_12h24.55.145,Oddball_task,2022.2.5,59.94391647561336,
standard,soundFiles/1000Hz_-3dBFS_3s_44.1kHz.wav',None,1000,44,0,176,2,,,,,613.2420284000109,614.2401523000008,614.2394029900009,616.2406516000046,616.7565260999982,3.5103958310612864,None,1,,615.2410750999989,,,,levi,001,2023-10-27_12h24.55.145,Oddball_task,2022.2.5,59.94391647561336,
standard,soundFiles/1000Hz_-3dBFS_3s_44.1kHz.wav',None,1000,44,1,177,1,,,,,616.7565260999982,617.7565888000099,617.7580544900105,619.7559748000058,619.0257890000066,2.2608860768511905,None,1,,618.7580804000027,,,,levi,001,2023-10-27_12h24.55.145,Oddball_task,2022.2.5,59.94391647561336,
standard,soundFiles/1000Hz_-3dBFS_3s_44.1kHz.wav',None,1000,44,2,178,0,,,,,619.7559748000058,620.7564622000064,620.7582775900067,622.7563449000008,622.2410821000085,2.4848779524464506,None,1,,621.7568268000032,,,,levi,001,2023-10-27_12h24.55.145,Oddball_task,2022.2.5,59.94391647561336,
target,soundFiles/1200Hz_-3dBFS_3s_44.1kHz.wav',t,2000,44,3,179,3,,,,,622.7563449000008,623.7563852000021,623.7564354900081,625.757163000002,625.508665100002,2.73957751983231,t,1,0.8745362999907229,,,,,levi,001,2023-10-27_12h24.55.145,Oddball_task,2022.2.5,59.94391647561336,
target,soundFiles/1200Hz_-3dBFS_3s_44.1kHz.wav',t,2000,45,0,180,3,,,,,625.757163000002,626.7562451999984,626.7570407900042,628.7557263000053,628.3395014999987,2.5699313078460326,t,1,0.9013097999850288,,,,,levi,001,2023-10-27_12h24.55.145,Oddball_task,2022.2.5,59.94391647561336,
standard,soundFiles/1000Hz_-3dBFS_3s_44.1kHz.wav',None,1000,45,1,181,1,,,,,628.7557263000053,629.7584057000058,629.7570546900082,631.7564336000069,632.4402816000074,3.6844661603284514,None,1,,,,,,levi,001,2023-10-27_12h24.55.145,Oddball_task,2022.2.5,59.94391647561336,
standard,soundFiles/1000Hz_-3dBFS_3s_44.1kHz.wav',None,1000,45,2,182,2,,,,,632.4402816000074,633.4227541,633.4237935900004,635.4216796999972,634.6741585999989,2.2287362823846477,None,1,,,,,,levi,001,2023-10-27_12h24.55.145,Oddball_task,2022.2.5,59.94391647561336,
standard,soundFiles/1000Hz_-3dBFS_3s_44.1kHz.wav',None,1000,45,3,183,0,,,,,635.4216796999972,636.4226691000076,636.4232259900003,638.4218585000053,638.8393610000057,3.4078533887294227,None,1,,,,,,levi,001,2023-10-27_12h24.55.145,Oddball_task,2022.2.5,59.94391647561336,
target,soundFiles/1200Hz_-3dBFS_3s_44.1kHz.wav',t,2000,46,0,184,3,,,,,638.8393610000057,639.8403041999991,639.838964990004,641.8404523000063,641.4546492000081,2.6177689721519988,t,1,1.185107599987532,640.8411838000029,,,,levi,001,2023-10-27_12h24.55.145,Oddball_task,2022.2.5,59.94391647561336,
standard,soundFiles/1000Hz_-3dBFS_3s_44.1kHz.wav',None,1000,46,1,185,0,,,,,641.8404523000063,642.8398748000036,642.8390323900079,644.8547983000026,644.489115000004,2.6501778345049076,None,1,,,,,,levi,001,2023-10-27_12h24.55.145,Oddball_task,2022.2.5,59.94391647561336,
standard,soundFiles/1000Hz_-3dBFS_3s_44.1kHz.wav',None,1000,46,2,186,1,,,,,644.8547983000026,645.855616300003,645.8557941900057,647.8550306000107,647.2726290999999,2.4169449027360077,None,1,,,,,,levi,001,2023-10-27_12h24.55.145,Oddball_task,2022.2.5,59.94391647561336,
standard,soundFiles/1000Hz_-3dBFS_3s_44.1kHz.wav',None,1000,46,3,187,2,,,,,647.8550306000107,648.8551604000095,648.8556914900095,650.8552934000036,650.3059609000047,2.448937333708918,None,1,,,,,,levi,001,2023-10-27_12h24.55.145,Oddball_task,2022.2.5,59.94391647561336,
target,soundFiles/1200Hz_-3dBFS_3s_44.1kHz.wav',t,2000,47,0,188,3,,,,,650.8552934000036,651.855501099999,651.8553668900116,653.8550717000035,654.6877912000054,3.831580542386983,t,1,1.0307216999790398,,,,,levi,001,2023-10-27_12h24.55.145,Oddball_task,2022.2.5,59.94391647561336,
standard,soundFiles/1000Hz_-3dBFS_3s_44.1kHz.wav',None,1000,47,1,189,2,,,,,654.6877912000054,655.6886668000079,655.6894731900087,657.6887582000054,657.2722123999993,2.582804069842499,None,1,,,,,,levi,001,2023-10-27_12h24.55.145,Oddball_task,2022.2.5,59.94391647561336,
standard,soundFiles/1000Hz_-3dBFS_3s_44.1kHz.wav',None,1000,47,2,190,1,,,,,657.6887582000054,658.689423600008,658.6892486900018,660.6891613000043,661.0875652000104,3.3927840538345064,None,1,,,,,,levi,001,2023-10-27_12h24.55.145,Oddball_task,2022.2.5,59.94391647561336,
standard,soundFiles/1000Hz_-3dBFS_3s_44.1kHz.wav',None,1000,47,3,191,0,,,,,661.0875652000104,662.0878358000045,662.0889716900114,664.0891543000034,664.7215531999973,3.629214876378452,None,1,,,,,,levi,001,2023-10-27_12h24.55.145,Oddball_task,2022.2.5,59.94391647561336,
target,soundFiles/1200Hz_-3dBFS_3s_44.1kHz.wav',t,2000,48,0,192,3,,,,,664.7215531999973,665.7213876000023,665.7216702900026,667.7209709000017,668.4719525999972,3.7479914350949644,t,1,0.9773643999942578,,,,,levi,001,2023-10-27_12h24.55.145,Oddball_task,2022.2.5,59.94391647561336,
standard,soundFiles/1000Hz_-3dBFS_3s_44.1kHz.wav',None,1000,48,1,193,0,,,,,668.4719525999972,669.4571394000086,669.4573755900041,671.4713525999978,671.0555855999992,2.577782863451297,None,1,,,,,,levi,001,2023-10-27_12h24.55.145,Oddball_task,2022.2.5,59.94391647561336,
standard,soundFiles/1000Hz_-3dBFS_3s_44.1kHz.wav',None,1000,48,2,194,2,,,,,671.4713525999978,672.4703824000026,672.4702984900053,674.471999500005,675.3875370000023,3.916932285400632,None,1,,,,,,levi,001,2023-10-27_12h24.55.145,Oddball_task,2022.2.5,59.94391647561336,
standard,soundFiles/1000Hz_-3dBFS_3s_44.1kHz.wav',None,1000,48,3,195,1,,,,,675.3875370000023,676.3879061000043,676.3888493899998,678.3860881,678.6549950000044,3.255653201666837,None,1,,,,,,levi,001,2023-10-27_12h24.55.145,Oddball_task,2022.2.5,59.94391647561336,
standard,soundFiles/1000Hz_-3dBFS_3s_44.1kHz.wav',None,1000,49,0,196,1,,,,,678.6549950000044,679.6535979000037,679.6536590900054,681.6541634000023,681.0369228000054,2.376724762182879,None,1,,,,,,levi,001,2023-10-27_12h24.55.145,Oddball_task,2022.2.5,59.94391647561336,
target,soundFiles/1200Hz_-3dBFS_3s_44.1kHz.wav',t,2000,49,1,197,3,,,,,681.6541634000023,682.674402500008,682.6589736900045,684.6875499000016,685.3367306,3.681827061019931,t,1,0.7224432999937562,,,,,levi,001,2023-10-27_12h24.55.145,Oddball_task,2022.2.5,59.94391647561336,
standard,soundFiles/1000Hz_-3dBFS_3s_44.1kHz.wav',None,1000,49,2,198,0,,,,,685.3367306,686.3380928000115,686.3406737900062,688.3373624000087,687.8866697000049,2.5424434146151516,None,1,,,,,,levi,001,2023-10-27_12h24.55.145,Oddball_task,2022.2.5,59.94391647561336,
standard,soundFiles/1000Hz_-3dBFS_3s_44.1kHz.wav',None,1000,49,3,199,2,,,,,688.3373624000087,689.3371730000072,689.3369770900011,691.3361416000116,691.1370649000019,2.7958418288992144,None,1,,,,,,levi,001,2023-10-27_12h24.55.145,Oddball_task,2022.2.5,59.94391647561336,
standard,soundFiles/1000Hz_-3dBFS_3s_44.1kHz.wav',None,1000,50,0,200,0,,,,,691.3361416000116,692.3357954000094,692.3364245899996,694.3361732000049,693.8033703999972,2.454609100762706,None,1,,,,,,levi,001,2023-10-27_12h24.55.145,Oddball_task,2022.2.5,59.94391647561336,
standard,soundFiles/1000Hz_-3dBFS_3s_44.1kHz.wav',None,1000,50,1,201,1,,,,,694.3361732000049,695.3356075000047,695.3380934900036,697.3505835000105,696.8706542,2.523078593400318,None,1,,,,,,levi,001,2023-10-27_12h24.55.145,Oddball_task,2022.2.5,59.94391647561336,
standard,soundFiles/1000Hz_-3dBFS_3s_44.1kHz.wav',None,1000,50,2,202,2,,,,,697.3505835000105,698.3385447000037,698.3373349900052,700.3527604999981,699.402556800007,2.0427906022885756,None,1,,,,,,levi,001,2023-10-27_12h24.55.145,Oddball_task,2022.2.5,59.94391647561336,
target,soundFiles/1200Hz_-3dBFS_3s_44.1kHz.wav',t,2000,50,3,203,3,,,,,700.3527604999981,701.3537718000007,701.3547493900099,703.3527302000002,704.2858168000093,3.924576894234211,t,1,1.3632092999760062,,,,,levi,001,2023-10-27_12h24.55.145,Oddball_task,2022.2.5,59.94391647561336,
standard,soundFiles/1000Hz_-3dBFS_3s_44.1kHz.wav',None,1000,51,0,204,0,,,,,704.2858168000093,705.2849959000014,705.2851780900077,707.2864981000021,707.0201808999991,2.7277745107118827,None,1,,,,,,levi,001,2023-10-27_12h24.55.145,Oddball_task,2022.2.5,59.94391647561336,
standard,soundFiles/1000Hz_-3dBFS_3s_44.1kHz.wav',None,1000,51,1,205,2,,,,,707.2864981000021,708.2864392000047,708.2864601900059,710.2854386000108,710.0027750000008,2.7150335974359403,None,1,,,,,,levi,001,2023-10-27_12h24.55.145,Oddball_task,2022.2.5,59.94391647561336,
target,soundFiles/1200Hz_-3dBFS_3s_44.1kHz.wav',t,2000,51,2,206,3,,,,,710.2854386000108,711.286096900003,711.2858873900099,713.2858636000019,712.4853193000017,2.2006072367004865,t,1,0.8995551999978488,,,,,levi,001,2023-10-27_12h24.55.145,Oddball_task,2022.2.5,59.94391647561336,
standard,soundFiles/1000Hz_-3dBFS_3s_44.1kHz.wav',None,1000,51,3,207,1,,,,,713.2858636000019,714.2854828999989,714.2853658900116,716.284994600006,715.536170300009,2.2376875152545384,None,1,,,,,,levi,001,2023-10-27_12h24.55.145,Oddball_task,2022.2.5,59.94391647561336,
standard,soundFiles/1000Hz_-3dBFS_3s_44.1kHz.wav',None,1000,52,0,208,1,,,,,716.284994600006,717.2871729000035,717.2862004900074,719.3021701000107,718.7515260000073,2.4637124868519598,None,1,,,,,,levi,001,2023-10-27_12h24.55.145,Oddball_task,2022.2.5,59.94391647561336,
target,soundFiles/1200Hz_-3dBFS_3s_44.1kHz.wav',t,2000,52,1,209,3,,,,,719.3021701000107,720.3020644000062,720.3010479900098,722.3024386000034,721.4693121000018,2.1625091526562614,t,1,1.029721899991273,,,,,levi,001,2023-10-27_12h24.55.145,Oddball_task,2022.2.5,59.94391647561336,
standard,soundFiles/1000Hz_-3dBFS_3s_44.1kHz.wav',None,1000,52,2,210,2,,,,,722.3024386000034,723.3012229000014,723.3008000899994,725.3024151999998,726.1516199000034,3.820586843262441,None,1,,,,,,levi,001,2023-10-27_12h24.55.145,Oddball_task,2022.2.5,59.94391647561336,
standard,soundFiles/1000Hz_-3dBFS_3s_44.1kHz.wav',None,1000,52,3,211,0,,,,,726.1516199000034,727.1355161000101,727.1347333900034,729.1517600000079,728.2182031999982,2.05627151540012,None,1,,,,,,levi,001,2023-10-27_12h24.55.145,Oddball_task,2022.2.5,59.94391647561336,
standard,soundFiles/1000Hz_-3dBFS_3s_44.1kHz.wav',None,1000,53,0,212,1,,,,,729.1517600000079,730.1513655000017,730.1519833900078,732.152685100009,731.6015095000039,2.44641276750089,None,1,,,,,,levi,001,2023-10-27_12h24.55.145,Oddball_task,2022.2.5,59.94391647561336,
target,soundFiles/1200Hz_-3dBFS_3s_44.1kHz.wav',t,2000,53,1,213,3,,,,,732.152685100009,733.1508845000062,733.1511488900127,735.1505670000042,734.9176188999991,2.753115562048505,t,1,1.397457300001406,,,,,levi,001,2023-10-27_12h24.55.145,Oddball_task,2022.2.5,59.94391647561336,
standard,soundFiles/1000Hz_-3dBFS_3s_44.1kHz.wav',None,1000,53,2,214,2,,,,,735.1505670000042,736.1512600999995,736.1524455900056,738.1505297000112,737.2829782000044,2.1276872524785486,None,1,,,,,,levi,001,2023-10-27_12h24.55.145,Oddball_task,2022.2.5,59.94391647561336,
standard,soundFiles/1000Hz_-3dBFS_3s_44.1kHz.wav',None,1000,53,3,215,0,,,,,738.1505297000112,739.1511448000092,739.15189959001,741.1516848000028,741.6338125000038,3.4796803538211813,None,1,,,,,,levi,001,2023-10-27_12h24.55.145,Oddball_task,2022.2.5,59.94391647561336,
target,soundFiles/1200Hz_-3dBFS_3s_44.1kHz.wav',t,2000,54,0,216,3,,,,,741.6338125000038,742.6338472000061,742.632891590007,744.6334895000036,744.3341306000075,2.700085123123129,t,1,0.7220466999860946,,,,,levi,001,2023-10-27_12h24.55.145,Oddball_task,2022.2.5,59.94391647561336,
standard,soundFiles/1000Hz_-3dBFS_3s_44.1kHz.wav',None,1000,54,1,217,2,,,,,744.6334895000036,745.6167145000072,745.6178657900003,747.6168700999988,746.6502935000026,2.0071976947731027,None,1,,,,,,levi,001,2023-10-27_12h24.55.145,Oddball_task,2022.2.5,59.94391647561336,
standard,soundFiles/1000Hz_-3dBFS_3s_44.1kHz.wav',None,1000,54,2,218,0,,,,,747.6168700999988,748.6175689000083,748.6166377900066,750.6162698999979,750.4993325000105,2.8783675917659046,None,1,,,,,,levi,001,2023-10-27_12h24.55.145,Oddball_task,2022.2.5,59.94391647561336,
standard,soundFiles/1000Hz_-3dBFS_3s_44.1kHz.wav',None,1000,54,3,219,1,,,,,750.6162698999979,751.6173062000016,751.6178435900059,753.6164764999994,752.6329205000075,2.0129653236680074,None,1,,,,,,levi,001,2023-10-27_12h24.55.145,Oddball_task,2022.2.5,59.94391647561336,
standard,soundFiles/1000Hz_-3dBFS_3s_44.1kHz.wav',None,1000,55,0,220,1,,,,,753.6164764999994,754.6160086000018,754.6167912900113,756.616752300004,756.9001399000117,3.274187608293749,None,1,,,,,,levi,001,2023-10-27_12h24.55.145,Oddball_task,2022.2.5,59.94391647561336,
standard,soundFiles/1000Hz_-3dBFS_3s_44.1kHz.wav',None,1000,55,1,221,0,,,,,756.9001399000117,757.8989213000023,757.8996689900072,759.9005513000011,758.9990902999998,2.09940233122762,None,1,,758.9003306000086,,,,levi,001,2023-10-27_12h24.55.145,Oddball_task,2022.2.5,59.94391647561336,
target,soundFiles/1200Hz_-3dBFS_3s_44.1kHz.wav',t,2000,55,2,222,3,,,,,759.9005513000011,760.8995074999984,760.9005804900065,762.8992541000043,763.8842405000032,3.974710104113123,t,1,0.7562748999771429,,,,,levi,001,2023-10-27_12h24.55.145,Oddball_task,2022.2.5,59.94391647561336,
standard,soundFiles/1000Hz_-3dBFS_3s_44.1kHz.wav',None,1000,55,3,223,2,,,,,763.8842405000032,764.8831402000069,764.8832456900112,766.8840794999996,766.4494263000088,2.5498834288096175,None,1,,765.8843219999981,,,,levi,001,2023-10-27_12h24.55.145,Oddball_task,2022.2.5,59.94391647561336,
standard,soundFiles/1000Hz_-3dBFS_3s_44.1kHz.wav',None,1000,56,0,224,1,,,,,766.8840794999996,767.8839990999986,767.8832466900043,769.8999021000054,769.6656906999997,2.7824189964563444,None,1,,,,,,levi,001,2023-10-27_12h24.55.145,Oddball_task,2022.2.5,59.94391647561336,
standard,soundFiles/1000Hz_-3dBFS_3s_44.1kHz.wav',None,1000,56,1,225,0,,,,,769.8999021000054,770.8984673000086,770.9001352900071,772.8981561999972,773.3988342000084,3.4975190555276905,None,1,,,,,,levi,001,2023-10-27_12h24.55.145,Oddball_task,2022.2.5,59.94391647561336,
target,soundFiles/1200Hz_-3dBFS_3s_44.1kHz.wav',t,2000,56,2,226,3,,,,,773.3988342000084,774.3991485000006,774.3994744900104,776.3982012000051,775.9325011000037,2.5216167213201164,t,1,0.8387886999844341,775.3985164000042,,,,levi,001,2023-10-27_12h24.55.145,Oddball_task,2022.2.5,59.94391647561336,
standard,soundFiles/1000Hz_-3dBFS_3s_44.1kHz.wav',None,1000,56,3,227,2,,,,,776.3982012000051,777.3996455000015,777.3994780900088,779.4148657000042,778.7312822000094,2.3323613766976456,None,1,,,,,,levi,001,2023-10-27_12h24.55.145,Oddball_task,2022.2.5,59.94391647561336,
standard,soundFiles/1000Hz_-3dBFS_3s_44.1kHz.wav',None,1000,57,0,228,0,,,,,779.4148657000042,780.3982652999985,780.3998057900011,782.3990251000068,781.5994465999975,2.1765542136233855,None,1,,,,,,levi,001,2023-10-27_12h24.55.145,Oddball_task,2022.2.5,59.94391647561336,
standard,soundFiles/1000Hz_-3dBFS_3s_44.1kHz.wav',None,1000,57,1,229,1,,,,,782.3990251000068,783.3985742000077,783.3991059899985,785.3982655,785.6650763000071,3.2592609558130756,None,1,,,,,,levi,001,2023-10-27_12h24.55.145,Oddball_task,2022.2.5,59.94391647561336,
target,soundFiles/1200Hz_-3dBFS_3s_44.1kHz.wav',t,2000,57,2,230,3,,,,,785.6650763000071,786.6650584000017,786.6662888900013,788.6651467000047,789.0985512000043,3.4280780639070367,t,1,0.6427267999824835,,,,,levi,001,2023-10-27_12h24.55.145,Oddball_task,2022.2.5,59.94391647561336,
standard,soundFiles/1000Hz_-3dBFS_3s_44.1kHz.wav',None,1000,57,3,231,2,,,,,789.0985512000043,790.0977004000015,790.0990344900041,792.1007709999976,792.6153695000103,3.5140909869339234,None,1,,,,,,levi,001,2023-10-27_12h24.55.145,Oddball_task,2022.2.5,59.94391647561336,
standard,soundFiles/1000Hz_-3dBFS_3s_44.1kHz.wav',None,1000,58,0,232,0,,,,,792.6153695000103,793.6159562000103,793.6136449900063,795.6209668000083,796.4986754999991,3.8739579375669755,None,1,,,,,,levi,001,2023-10-27_12h24.55.145,Oddball_task,2022.2.5,59.94391647561336,
standard,soundFiles/1000Hz_-3dBFS_3s_44.1kHz.wav',None,1000,58,1,233,2,,,,,796.4986754999991,797.4989251000079,797.497851890001,799.5144833000086,800.4471215000085,3.943118517722281,None,1,,,,,,levi,001,2023-10-27_12h24.55.145,Oddball_task,2022.2.5,59.94391647561336,
standard,soundFiles/1000Hz_-3dBFS_3s_44.1kHz.wav',None,1000,58,2,234,1,,,,,800.4471215000085,801.447931200004,801.4480351900114,803.4473306,804.1650525000005,3.7020406546419236,None,1,,,,,,levi,001,2023-10-27_12h24.55.145,Oddball_task,2022.2.5,59.94391647561336,
target,soundFiles/1200Hz_-3dBFS_3s_44.1kHz.wav',t,2000,58,3,235,3,,,,,804.1650525000005,805.164728600008,805.1637986900008,807.1657613999996,806.5644899000035,2.3866712245303967,t,1,0.9570263999921735,,,,,levi,001,2023-10-27_12h24.55.145,Oddball_task,2022.2.5,59.94391647561336,
target,soundFiles/1200Hz_-3dBFS_3s_44.1kHz.wav',t,2000,59,0,236,3,,,,,807.1657613999996,808.1639800999983,808.1638579900012,810.2013940000033,811.0468390000024,3.8678016916766573,t,1,0.8729166999983136,,,,,levi,001,2023-10-27_12h24.55.145,Oddball_task,2022.2.5,59.94391647561336,
standard,soundFiles/1000Hz_-3dBFS_3s_44.1kHz.wav',None,1000,59,1,237,0,,,,,811.0468390000024,812.046109700008,812.0472151900016,814.0458227000054,813.8635058000073,2.8077481631433168,None,1,,,,,,levi,001,2023-10-27_12h24.55.145,Oddball_task,2022.2.5,59.94391647561336,
standard,soundFiles/1000Hz_-3dBFS_3s_44.1kHz.wav',None,1000,59,2,238,2,,,,,814.0458227000054,815.0454847000074,815.0460347900065,817.0485549000005,817.2978564000077,3.2509682234746897,None,1,,,,,,levi,001,2023-10-27_12h24.55.145,Oddball_task,2022.2.5,59.94391647561336,
standard,soundFiles/1000Hz_-3dBFS_3s_44.1kHz.wav',None,1000,59,3,239,1,,,,,817.2978564000077,818.2980498000106,818.2967904899982,820.3133722000057,819.9141441000102,2.6156389448572703,None,1,,,,,,levi,001,2023-10-27_12h24.55.145,Oddball_task,2022.2.5,59.94391647561336,
standard,soundFiles/1000Hz_-3dBFS_3s_44.1kHz.wav',None,1000,60,0,240,0,,,,,820.3133722000057,821.3130363000091,821.3140718900089,823.3122756000084,823.431199300001,3.102880584940213,None,1,,,,,,levi,001,2023-10-27_12h24.55.145,Oddball_task,2022.2.5,59.94391647561336,
target,soundFiles/1200Hz_-3dBFS_3s_44.1kHz.wav',t,2000,60,1,241,3,,,,,823.431199300001,824.4297436000052,824.4298684900117,826.4300053000043,826.3638905000116,2.920592847491185,t,1,0.9011566999834031,,,,,levi,001,2023-10-27_12h24.55.145,Oddball_task,2022.2.5,59.94391647561336,
standard,soundFiles/1000Hz_-3dBFS_3s_44.1kHz.wav',None,1000,60,2,242,1,,,,,826.4300053000043,827.4137886000099,827.4147233899988,829.4131673000084,829.2630575000076,2.821535467192287,None,1,,,,,,levi,001,2023-10-27_12h24.55.145,Oddball_task,2022.2.5,59.94391647561336,
standard,soundFiles/1000Hz_-3dBFS_3s_44.1kHz.wav',None,1000,60,3,243,2,,,,,829.4131673000084,830.3975058000069,830.3977760900001,832.3984543000115,832.8614341000066,3.4239457028493283,None,1,,,,,,levi,001,2023-10-27_12h24.55.145,Oddball_task,2022.2.5,59.94391647561336,
standard,soundFiles/1000Hz_-3dBFS_3s_44.1kHz.wav',None,1000,61,0,244,2,,,,,832.8614341000066,833.8465613000008,833.8464548900068,835.861896500006,835.8945609000075,3.021946601492793,None,1,,,,,,levi,001,2023-10-27_12h24.55.145,Oddball_task,2022.2.5,59.94391647561336,
standard,soundFiles/1000Hz_-3dBFS_3s_44.1kHz.wav',None,1000,61,1,245,1,,,,,835.8945609000075,836.8798990000068,836.8806649900056,838.8798064000002,838.0293815000041,2.122772902883357,None,1,,,,,,levi,001,2023-10-27_12h24.55.145,Oddball_task,2022.2.5,59.94391647561336,
target,soundFiles/1200Hz_-3dBFS_3s_44.1kHz.wav',t,2000,61,2,246,3,,,,,838.8798064000002,839.8783953000093,839.879023690008,841.8796085000067,841.8131079000013,2.920697926697381,t,1,0.9971576999960234,840.8780677000032,,,,levi,001,2023-10-27_12h24.55.145,Oddball_task,2022.2.5,59.94391647561336,
standard,soundFiles/1000Hz_-3dBFS_3s_44.1kHz.wav',None,1000,61,3,247,0,,,,,841.8796085000067,842.8787850000081,842.880535090006,844.8792315000028,844.8792315000028,2.987769900573559,None,1,,,,,,levi,001,2023-10-27_12h24.55.145,Oddball_task,2022.2.5,59.94391647561336,
target,soundFiles/1200Hz_-3dBFS_3s_44.1kHz.wav',t,2000,62,0,248,3,,,,,844.8792315000028,845.8625508999976,845.8639353900056,847.8617918000091,847.7459144000022,2.8592845270807414,t,1,0.8340708999894559,,,,,levi,001,2023-10-27_12h24.55.145,Oddball_task,2022.2.5,59.94391647561336,
standard,soundFiles/1000Hz_-3dBFS_3s_44.1kHz.wav',None,1000,62,1,249,0,,,,,847.8617918000091,848.8620692000113,848.8625540900088,850.8613119000074,851.2109441000066,3.3463450165897344,None,1,,,,,,levi,001,2023-10-27_12h24.55.145,Oddball_task,2022.2.5,59.94391647561336,
standard,soundFiles/1000Hz_-3dBFS_3s_44.1kHz.wav',None,1000,62,2,250,2,,,,,851.2109441000066,852.1944044999982,852.1961311900071,854.1957641000045,855.077792000011,3.860021352198884,None,1,,,,,,levi,001,2023-10-27_12h24.55.145,Oddball_task,2022.2.5,59.94391647561336,
standard,soundFiles/1000Hz_-3dBFS_3s_44.1kHz.wav',None,1000,62,3,251,1,,,,,855.077792000011,856.0786386000109,856.0779582900126,858.0937425000011,858.2788751000044,3.1973590212802434,None,1,,,,,,levi,001,2023-10-27_12h24.55.145,Oddball_task,2022.2.5,59.94391647561336,
target,soundFiles/1200Hz_-3dBFS_3s_44.1kHz.wav',t,2000,63,0,252,3,,,,,858.2788751000044,859.2616620000044,859.2619974899993,861.2623721999989,860.7267207000114,2.4336036987224787,t,1,0.9258982999890577,,,,,levi,001,2023-10-27_12h24.55.145,Oddball_task,2022.2.5,59.94391647561336,
standard,soundFiles/1000Hz_-3dBFS_3s_44.1kHz.wav',None,1000,63,1,253,2,,,,,861.2623721999989,862.2612235999986,862.2610151899993,864.2606788999983,864.4601298000052,3.1968417800016105,None,1,,,,,,levi,001,2023-10-27_12h24.55.145,Oddball_task,2022.2.5,59.94391647561336,
standard,soundFiles/1000Hz_-3dBFS_3s_44.1kHz.wav',None,1000,63,2,254,0,,,,,864.4601298000052,865.4604221000045,865.4626351900064,867.4602771000064,868.4111717000051,3.9487579053261603,None,1,,,,,,levi,001,2023-10-27_12h24.55.145,Oddball_task,2022.2.5,59.94391647561336,
standard,soundFiles/1000Hz_-3dBFS_3s_44.1kHz.wav',None,1000,63,3,255,1,,,,,868.4111717000051,869.4109415999992,869.4104599900005,871.4108494000102,871.7097637000115,3.2849014493969353,None,1,,,,,,levi,001,2023-10-27_12h24.55.145,Oddball_task,2022.2.5,59.94391647561336,
standard,soundFiles/1000Hz_-3dBFS_3s_44.1kHz.wav',None,1000,64,0,256,2,,,,,871.7097637000115,872.6948660000053,872.6955330900076,874.7106308000075,875.5936232000095,3.873469916527231,None,1,,,,,,levi,001,2023-10-27_12h24.55.145,Oddball_task,2022.2.5,59.94391647561336,
target,soundFiles/1200Hz_-3dBFS_3s_44.1kHz.wav',t,2000,64,1,257,3,,,,,875.5936232000095,876.594019600001,876.5959115900026,878.5943090000073,878.5118855000037,2.911775112982251,t,1,0.7537917999870842,,,,,levi,001,2023-10-27_12h24.55.145,Oddball_task,2022.2.5,59.94391647561336,
standard,soundFiles/1000Hz_-3dBFS_3s_44.1kHz.wav',None,1000,64,2,258,1,,,,,878.5943090000073,879.5936857000052,879.5939609900073,881.6092784000066,882.5595844000054,3.959109832989018,None,1,,,,,,levi,001,2023-10-27_12h24.55.145,Oddball_task,2022.2.5,59.94391647561336,
standard,soundFiles/1000Hz_-3dBFS_3s_44.1kHz.wav',None,1000,64,3,259,0,,,,,882.5595844000054,883.5599508000014,883.5605685900067,885.559482800003,886.0774298000033,3.5179412373198877,None,1,,,,,,levi,001,2023-10-27_12h24.55.145,Oddball_task,2022.2.5,59.94391647561336,
standard,soundFiles/1000Hz_-3dBFS_3s_44.1kHz.wav',None,1000,65,0,260,2,,,,,886.0774298000033,887.078754800008,887.0774245900087,889.0924662000034,889.726411399999,3.636722230977141,None,1,,,,,,levi,001,2023-10-27_12h24.55.145,Oddball_task,2022.2.5,59.94391647561336,
standard,soundFiles/1000Hz_-3dBFS_3s_44.1kHz.wav',None,1000,65,1,261,1,,,,,889.726411399999,890.7261628999986,890.7268133900055,892.7271469999978,892.8591777999973,3.1203699921920953,None,1,,,,,,levi,001,2023-10-27_12h24.55.145,Oddball_task,2022.2.5,59.94391647561336,
standard,soundFiles/1000Hz_-3dBFS_3s_44.1kHz.wav',None,1000,65,2,262,0,,,,,892.8591777999973,893.8591580000066,893.8597485900085,895.8588089000114,895.6091873999976,2.7412316987492966,None,1,,,,,,levi,001,2023-10-27_12h24.55.145,Oddball_task,2022.2.5,59.94391647561336,
target,soundFiles/1200Hz_-3dBFS_3s_44.1kHz.wav',t,2000,65,3,263,3,,,,,895.8588089000114,896.8588830000081,896.8597734900089,898.8604207000026,898.1585828000098,2.2953332146123415,t,1,0.7601374999794643,,,,,levi,001,2023-10-27_12h24.55.145,Oddball_task,2022.2.5,59.94391647561336,
standard,soundFiles/1000Hz_-3dBFS_3s_44.1kHz.wav',None,1000,66,0,264,2,,,,,898.8604207000026,899.8587699000054,899.8587494900115,901.8578258000052,901.3919518000039,2.5265797934521235,None,1,,900.8579909000109,,,,levi,001,2023-10-27_12h24.55.145,Oddball_task,2022.2.5,59.94391647561336,
target,soundFiles/1200Hz_-3dBFS_3s_44.1kHz.wav',t,2000,66,1,265,3,,,,,901.8578258000052,902.8585623000108,902.8595189900064,904.8588201000093,904.9253685000003,3.0579109906417044,t,1,1.1362989999906858,,,,,levi,001,2023-10-27_12h24.55.145,Oddball_task,2022.2.5,59.94391647561336,
standard,soundFiles/1000Hz_-3dBFS_3s_44.1kHz.wav',None,1000,66,2,266,0,,,,,904.9253685000003,905.9513206999982,905.9328867900025,907.9583534999983,908.7427147999988,3.804775956031941,None,1,,,,,,levi,001,2023-10-27_12h24.55.145,Oddball_task,2022.2.5,59.94391647561336,
standard,soundFiles/1000Hz_-3dBFS_3s_44.1kHz.wav',None,1000,66,3,267,1,,,,,908.7427147999988,909.7425590000057,909.7418779900021,911.7421308000048,911.9754327999981,3.2289175421543685,None,1,,,,,,levi,001,2023-10-27_12h24.55.145,Oddball_task,2022.2.5,59.94391647561336,
standard,soundFiles/1000Hz_-3dBFS_3s_44.1kHz.wav',None,1000,67,0,268,2,,,,,911.9754327999981,912.9756784000056,912.9739259900074,914.9903491000005,915.1083876000048,3.125499125809326,None,1,,,,,,levi,001,2023-10-27_12h24.55.145,Oddball_task,2022.2.5,59.94391647561336,
target,soundFiles/1200Hz_-3dBFS_3s_44.1kHz.wav',t,2000,67,1,269,3,,,,,915.1083876000048,916.0925435000099,916.0938051899997,918.0904167999979,917.4755160000059,2.3534509378598156,t,1,1.0470444999809843,,,,,levi,001,2023-10-27_12h24.55.145,Oddball_task,2022.2.5,59.94391647561336,
standard,soundFiles/1000Hz_-3dBFS_3s_44.1kHz.wav',None,1000,67,2,270,1,,,,,918.0904167999979,919.0901366000035,919.0910513900002,921.0908664000017,920.9081654000038,2.8143468353896535,None,1,,920.0908770000096,,,,levi,001,2023-10-27_12h24.55.145,Oddball_task,2022.2.5,59.94391647561336,
standard,soundFiles/1000Hz_-3dBFS_3s_44.1kHz.wav',None,1000,67,3,271,0,,,,,921.0908664000017,922.0941400000011,922.0915663900072,924.108035199999,924.2080246000114,3.107703181336582,None,1,,,,,,levi,001,2023-10-27_12h24.55.145,Oddball_task,2022.2.5,59.94391647561336,
target,soundFiles/1200Hz_-3dBFS_3s_44.1kHz.wav',t,2000,68,0,272,3,,,,,924.2080246000114,925.1911268000113,925.1941802900095,927.1903671000036,927.7577056000009,3.5502247274964978,t,1,1.3725905999890529,,,,,levi,001,2023-10-27_12h24.55.145,Oddball_task,2022.2.5,59.94391647561336,
standard,soundFiles/1000Hz_-3dBFS_3s_44.1kHz.wav',None,1000,68,1,273,1,,,,,927.7577056000009,928.7580125000095,928.7587699900017,930.7575942000112,931.4417240000039,3.6693057702772203,None,1,,,,,,levi,001,2023-10-27_12h24.55.145,Oddball_task,2022.2.5,59.94391647561336,
standard,soundFiles/1000Hz_-3dBFS_3s_44.1kHz.wav',None,1000,68,2,274,2,,,,,931.4417240000039,932.441181400005,932.4398261900045,934.4413819000038,935.3231357000041,3.868373357465112,None,1,,,,,,levi,001,2023-10-27_12h24.55.145,Oddball_task,2022.2.5,59.94391647561336,
standard,soundFiles/1000Hz_-3dBFS_3s_44.1kHz.wav',None,1000,68,3,275,0,,,,,935.3231357000041,936.3230638000095,936.3240356900045,938.3237729000102,938.7896307000046,3.457238476718164,None,1,,,,,,levi,001,2023-10-27_12h24.55.145,Oddball_task,2022.2.5,59.94391647561336,
standard,soundFiles/1000Hz_-3dBFS_3s_44.1kHz.wav',None,1000,69,0,276,0,,,,,938.7896307000046,939.7898903000023,939.7905411900123,941.7903060000099,942.6891890999977,3.8886639097457745,None,1,,,,,,levi,001,2023-10-27_12h24.55.145,Oddball_task,2022.2.5,59.94391647561336,
standard,soundFiles/1000Hz_-3dBFS_3s_44.1kHz.wav',None,1000,69,1,277,1,,,,,942.6891890999977,943.6895796000026,943.6896211900006,945.6901185000024,945.0399557000055,2.34983834062112,None,1,,,,,,levi,001,2023-10-27_12h24.55.145,Oddball_task,2022.2.5,59.94391647561336,
standard,soundFiles/1000Hz_-3dBFS_3s_44.1kHz.wav',None,1000,69,2,278,2,,,,,945.6901185000024,946.6910025000107,946.6917933900098,948.6897043000063,948.6409548000083,2.9479849916271808,None,1,,,,,,levi,001,2023-10-27_12h24.55.145,Oddball_task,2022.2.5,59.94391647561336,
target,soundFiles/1200Hz_-3dBFS_3s_44.1kHz.wav',t,2000,69,3,279,3,,,,,948.6897043000063,949.6897907000093,949.6904835900044,951.6895483999979,951.5405048000102,2.8372849578178467,t,1,0.7111547999957111,,,,,levi,001,2023-10-27_12h24.55.145,Oddball_task,2022.2.5,59.94391647561336,
target,soundFiles/1200Hz_-3dBFS_3s_44.1kHz.wav',t,2000,70,0,280,3,,,,,951.6895483999979,952.6893049000064,952.6899272900031,954.6893438999978,954.7730125000089,3.0815735586007333,t,1,0.8506103999825427,,,,,levi,001,2023-10-27_12h24.55.145,Oddball_task,2022.2.5,59.94391647561336,
standard,soundFiles/1000Hz_-3dBFS_3s_44.1kHz.wav',None,1000,70,1,281,2,,,,,954.7730125000089,955.7728809000109,955.7719182900022,957.7885698000027,958.6067388000083,3.8246376300703417,None,1,,,,,,levi,001,2023-10-27_12h24.55.145,Oddball_task,2022.2.5,59.94391647561336,
standard,soundFiles/1000Hz_-3dBFS_3s_44.1kHz.wav',None,1000,70,2,282,1,,,,,958.6067388000083,959.605765100001,959.6054094900013,961.6071649000078,962.25576,3.6501100249705676,None,1,,,,,,levi,001,2023-10-27_12h24.55.145,Oddball_task,2022.2.5,59.94391647561336,
standard,soundFiles/1000Hz_-3dBFS_3s_44.1kHz.wav',None,1000,70,3,283,0,,,,,962.25576,963.256770100008,963.2561229900006,965.2554999999993,966.0402876000007,3.7746368663986067,None,1,,964.2557505000004,,,,levi,001,2023-10-27_12h24.55.145,Oddball_task,2022.2.5,59.94391647561336,
target,soundFiles/1200Hz_-3dBFS_3s_44.1kHz.wav',t,2000,71,0,284,3,,,,,966.0402876000007,967.0399992000021,967.0394301900072,969.0554338000074,969.1060488000076,3.0629215619231043,t,1,0.6940414999844506,,,,,levi,001,2023-10-27_12h24.55.145,Oddball_task,2022.2.5,59.94391647561336,
standard,soundFiles/1000Hz_-3dBFS_3s_44.1kHz.wav',None,1000,71,1,285,0,,,,,969.1060488000076,970.1079185999988,970.1060922900054,972.1215920000104,971.6406409000047,2.528105955278317,None,1,,,,,,levi,001,2023-10-27_12h24.55.145,Oddball_task,2022.2.5,59.94391647561336,
standard,soundFiles/1000Hz_-3dBFS_3s_44.1kHz.wav',None,1000,71,2,286,2,,,,,972.1215920000104,973.1220956000034,973.1231379900113,975.1205222999997,974.2545989000064,2.120542283534972,None,1,,974.121719200004,,,,levi,001,2023-10-27_12h24.55.145,Oddball_task,2022.2.5,59.94391647561336,
standard,soundFiles/1000Hz_-3dBFS_3s_44.1kHz.wav',None,1000,71,3,287,1,,,,,975.1205222999997,976.1216397000098,976.1235949899987,978.1207552999986,978.6073419000022,3.4768426018187206,None,1,,,,,,levi,001,2023-10-27_12h24.55.145,Oddball_task,2022.2.5,59.94391647561336,
standard,soundFiles/1000Hz_-3dBFS_3s_44.1kHz.wav',None,1000,72,0,288,2,,,,,978.6073419000022,979.5878940999974,979.5885878899993,981.5890943999984,980.7379101000115,2.132731329317178,None,1,,,,,,levi,001,2023-10-27_12h24.55.145,Oddball_task,2022.2.5,59.94391647561336,
standard,soundFiles/1000Hz_-3dBFS_3s_44.1kHz.wav',None,1000,72,1,289,0,,,,,981.5890943999984,982.5713092000078,982.5727397900031,984.5715259999997,985.3547766999982,3.752787450629084,None,1,,,,,,levi,001,2023-10-27_12h24.55.145,Oddball_task,2022.2.5,59.94391647561336,
target,soundFiles/1200Hz_-3dBFS_3s_44.1kHz.wav',t,2000,72,2,290,3,,,,,985.3547766999982,986.3374379000015,986.338320090012,988.3370742000116,987.755538700003,2.393342296735142,t,1,0.8132088999846019,,,,,levi,001,2023-10-27_12h24.55.145,Oddball_task,2022.2.5,59.94391647561336,
standard,soundFiles/1000Hz_-3dBFS_3s_44.1kHz.wav',None,1000,72,3,291,1,,,,,988.3370742000116,989.3373036999983,989.3383470899993,991.3368112000026,991.4037708000105,3.0571641630777027,None,1,,,,,,levi,001,2023-10-27_12h24.55.145,Oddball_task,2022.2.5,59.94391647561336,
standard,soundFiles/1000Hz_-3dBFS_3s_44.1kHz.wav',None,1000,73,0,292,0,,,,,991.4037708000105,992.4039099000074,992.4041585900108,994.4041429000063,994.5370238000032,3.1301288259551665,None,1,,,,,,levi,001,2023-10-27_12h24.55.145,Oddball_task,2022.2.5,59.94391647561336,
standard,soundFiles/1000Hz_-3dBFS_3s_44.1kHz.wav',None,1000,73,1,293,2,,,,,994.5370238000032,995.5366685000045,995.5379964900043,997.5370978999999,997.7870860999974,3.236624048246143,None,1,,,,,,levi,001,2023-10-27_12h24.55.145,Oddball_task,2022.2.5,59.94391647561336,
target,soundFiles/1200Hz_-3dBFS_3s_44.1kHz.wav',t,2000,73,2,294,3,,,,,997.7870860999974,998.7702070000087,998.7715240899983,1000.7702490000083,1001.4032350000052,3.6126535955996504,t,1,0.7295735999941826,,,,,levi,001,2023-10-27_12h24.55.145,Oddball_task,2022.2.5,59.94391647561336,
standard,soundFiles/1000Hz_-3dBFS_3s_44.1kHz.wav',None,1000,73,3,295,1,,,,,1001.4032350000052,1002.4033961000096,1002.404259390007,1004.4034798000066,1004.7206070000102,3.315061382147136,None,1,,,,,,levi,001,2023-10-27_12h24.55.145,Oddball_task,2022.2.5,59.94391647561336,
standard,soundFiles/1000Hz_-3dBFS_3s_44.1kHz.wav',None,1000,74,0,296,0,,,,,1004.7206070000102,1005.7204517000064,1005.7197212900049,1007.7354043000087,1006.9025484000013,2.167164172719512,None,1,,,,,,levi,001,2023-10-27_12h24.55.145,Oddball_task,2022.2.5,59.94391647561336,
standard,soundFiles/1000Hz_-3dBFS_3s_44.1kHz.wav',None,1000,74,1,297,2,,,,,1007.7354043000087,1008.7364716000011,1008.7369578900092,1010.7358931000053,1010.2360798000009,2.497726804716427,None,1,,,,,,levi,001,2023-10-27_12h24.55.145,Oddball_task,2022.2.5,59.94391647561336,
standard,soundFiles/1000Hz_-3dBFS_3s_44.1kHz.wav',None,1000,74,2,298,1,,,,,1010.7358931000053,1011.736153100006,1011.7373326900109,1013.7374705000111,1013.1032999000017,2.35715910513385,None,1,,,,,,levi,001,2023-10-27_12h24.55.145,Oddball_task,2022.2.5,59.94391647561336,
target,soundFiles/1200Hz_-3dBFS_3s_44.1kHz.wav',t,2000,74,3,299,3,,,,,1013.7374705000111,1014.7359661000082,1014.7370724900087,1016.7351526999992,1017.1536312000098,3.409505520392919,t,1,0.9285152999946149,,,,,levi,001,2023-10-27_12h24.55.145,Oddball_task,2022.2.5,59.94391647561336,
target,soundFiles/1200Hz_-3dBFS_3s_44.1kHz.wav',t,2000,75,0,300,3,,,,,1017.1536312000098,1018.1528566000052,1018.1522351900043,1020.1680223000003,1020.6027820000018,3.446863180988256,t,1,0.9438916999788489,,,,,levi,001,2023-10-27_12h24.55.145,Oddball_task,2022.2.5,59.94391647561336,
standard,soundFiles/1000Hz_-3dBFS_3s_44.1kHz.wav',None,1000,75,1,301,0,,,,,1020.6027820000018,1021.6034796000022,1021.6051070900124,1023.6037104999996,1024.4866251000058,3.8760073570579547,None,1,,,,,,levi,001,2023-10-27_12h24.55.145,Oddball_task,2022.2.5,59.94391647561336,
standard,soundFiles/1000Hz_-3dBFS_3s_44.1kHz.wav',None,1000,75,2,302,2,,,,,1024.4866251000058,1025.4872780000005,1025.485495490006,1027.4865583000064,1028.0862798000016,3.5873130093072647,None,1,,1026.4862386000023,,,,levi,001,2023-10-27_12h24.55.145,Oddball_task,2022.2.5,59.94391647561336,
standard,soundFiles/1000Hz_-3dBFS_3s_44.1kHz.wav',None,1000,75,3,303,1,,,,,1028.0862798000016,1029.0867763999995,1029.0853549900044,1031.1021903000074,1031.9854223000002,3.896827219568674,None,1,,1030.086476700002,,,,levi,001,2023-10-27_12h24.55.145,Oddball_task,2022.2.5,59.94391647561336,
standard,soundFiles/1000Hz_-3dBFS_3s_44.1kHz.wav',None,1000,76,0,304,2,,,,,1031.9854223000002,1032.9860793999978,1032.9849768900008,1035.0018001999997,1035.2184674000018,3.228799374960521,None,1,,,,,,levi,001,2023-10-27_12h24.55.145,Oddball_task,2022.2.5,59.94391647561336,
target,soundFiles/1200Hz_-3dBFS_3s_44.1kHz.wav',t,2000,76,1,305,3,,,,,1035.2184674000018,1036.2185508999974,1036.2181451900092,1038.2200450000091,1037.5520149000076,2.332145507432178,t,1,0.7760078999854159,,,,,levi,001,2023-10-27_12h24.55.145,Oddball_task,2022.2.5,59.94391647561336,
standard,soundFiles/1000Hz_-3dBFS_3s_44.1kHz.wav',None,1000,76,2,306,1,,,,,1038.2200450000091,1039.2176747000049,1039.217292690008,1041.2187806000002,1041.0855201000086,2.849863423456717,None,1,,,,,,levi,001,2023-10-27_12h24.55.145,Oddball_task,2022.2.5,59.94391647561336,
standard,soundFiles/1000Hz_-3dBFS_3s_44.1kHz.wav',None,1000,76,3,307,0,,,,,1041.2187806000002,1042.2189104999998,1042.2180133900097,1044.2345142999984,1043.2341920000035,2.014492432567938,None,1,,1043.2185752000078,,,,levi,001,2023-10-27_12h24.55.145,Oddball_task,2022.2.5,59.94391647561336,
standard,soundFiles/1000Hz_-3dBFS_3s_44.1kHz.wav',None,1000,77,0,308,1,,,,,1044.2345142999984,1045.2345511000021,1045.2353084900083,1047.2345335999998,1047.5675482000079,3.3322173351717286,None,1,,,,,,levi,001,2023-10-27_12h24.55.145,Oddball_task,2022.2.5,59.94391647561336,
standard,soundFiles/1000Hz_-3dBFS_3s_44.1kHz.wav',None,1000,77,1,309,2,,,,,1047.5675482000079,1048.5671703000116,1048.5681074900044,1050.5673202000035,1049.9839780000038,2.4035539755434847,None,1,,1049.5673147000052,,,,levi,001,2023-10-27_12h24.55.145,Oddball_task,2022.2.5,59.94391647561336,
target,soundFiles/1200Hz_-3dBFS_3s_44.1kHz.wav',t,2000,77,2,310,3,,,,,1050.5673202000035,1051.567310600003,1051.5683949900108,1053.5677687999996,1053.8163210000057,3.2513244197971978,t,1,0.7395747999980813,,,,,levi,001,2023-10-27_12h24.55.145,Oddball_task,2022.2.5,59.94391647561336,
standard,soundFiles/1000Hz_-3dBFS_3s_44.1kHz.wav',None,1000,77,3,311,0,,,,,1053.8163210000057,1054.8165043000045,1054.8177164900103,1056.8170360000076,1056.5508365999995,2.7355053266434313,None,1,,,,,,levi,001,2023-10-27_12h24.55.145,Oddball_task,2022.2.5,59.94391647561336,
standard,soundFiles/1000Hz_-3dBFS_3s_44.1kHz.wav',None,1000,78,0,312,2,,,,,1056.8170360000076,1057.8167398000078,1057.817400590006,1059.8169551000028,1060.3831849999988,3.559490427060538,None,1,,,,,,levi,001,2023-10-27_12h24.55.145,Oddball_task,2022.2.5,59.94391647561336,
standard,soundFiles/1000Hz_-3dBFS_3s_44.1kHz.wav',None,1000,78,1,313,0,,,,,1060.3831849999988,1061.3841545000032,1061.384321590011,1063.3840741000022,1063.201333200006,2.8175227121578192,None,1,,,,,,levi,001,2023-10-27_12h24.55.145,Oddball_task,2022.2.5,59.94391647561336,
target,soundFiles/1200Hz_-3dBFS_3s_44.1kHz.wav',t,2000,78,2,314,3,,,,,1063.3840741000022,1064.368758800003,1064.3686009900107,1066.3831061000092,1066.4168658999988,3.029913650371866,t,1,0.9340515999938361,,,,,levi,001,2023-10-27_12h24.55.145,Oddball_task,2022.2.5,59.94391647561336,
standard,soundFiles/1000Hz_-3dBFS_3s_44.1kHz.wav',None,1000,78,3,315,1,,,,,1066.4168658999988,1067.416349600011,1067.4168925899999,1069.4168275999982,1070.4163826000004,3.994159653097742,None,1,,,,,,levi,001,2023-10-27_12h24.55.145,Oddball_task,2022.2.5,59.94391647561336,
standard,soundFiles/1000Hz_-3dBFS_3s_44.1kHz.wav',None,1000,79,0,316,0,,,,,1070.4163826000004,1071.4165665000037,1071.4174974900075,1073.4162756000005,1074.2834945000068,3.866580977734199,None,1,,,,,,levi,001,2023-10-27_12h24.55.145,Oddball_task,2022.2.5,59.94391647561336,
target,soundFiles/1200Hz_-3dBFS_3s_44.1kHz.wav',t,2000,79,1,317,3,,,,,1074.2834945000068,1075.2816261999978,1075.2823699900023,1077.2830070000055,1076.5825751000084,2.2993650025863213,t,1,0.8025387999805389,,,,,levi,001,2023-10-27_12h24.55.145,Oddball_task,2022.2.5,59.94391647561336,
standard,soundFiles/1000Hz_-3dBFS_3s_44.1kHz.wav',None,1000,79,2,318,2,,,,,1077.2830070000055,1078.2820255000115,1078.2821266900123,1080.2835900000064,1081.1164759000094,3.822232206690143,None,1,,,,,,levi,001,2023-10-27_12h24.55.145,Oddball_task,2022.2.5,59.94391647561336,
standard,soundFiles/1000Hz_-3dBFS_3s_44.1kHz.wav',None,1000,79,3,319,1,,,,,1081.1164759000094,1082.1164513000112,1082.1162422900074,1084.1160149000061,1084.9334122,3.8114456347578503,None,1,,,,,,levi,001,2023-10-27_12h24.55.145,Oddball_task,2022.2.5,59.94391647561336,
standard,soundFiles/1000Hz_-3dBFS_3s_44.1kHz.wav',None,1000,80,0,320,0,,,,,1084.9334122,1085.9165205000027,1085.917842690002,1087.9159930000023,1087.033434099998,2.0933570488632225,None,1,,1086.9165078000078,,,,levi,001,2023-10-27_12h24.55.145,Oddball_task,2022.2.5,59.94391647561336,
target,soundFiles/1200Hz_-3dBFS_3s_44.1kHz.wav',t,2000,80,1,321,3,,,,,1087.9159930000023,1088.9157682000077,1088.9169618900037,1090.9178036000085,1090.082179600009,2.1628640910726586,t,1,0.8132684999873163,,,,,levi,001,2023-10-27_12h24.55.145,Oddball_task,2022.2.5,59.94391647561336,
standard,soundFiles/1000Hz_-3dBFS_3s_44.1kHz.wav',None,1000,80,2,322,2,,,,,1090.9178036000085,1091.9176898000005,1091.9181292900016,1093.9315414000012,1094.5822283000016,3.6582938996386067,None,1,,,,,,levi,001,2023-10-27_12h24.55.145,Oddball_task,2022.2.5,59.94391647561336,
standard,soundFiles/1000Hz_-3dBFS_3s_44.1kHz.wav',None,1000,80,3,323,1,,,,,1094.5822283000016,1095.5815938000014,1095.582600090011,1097.5817170000082,1096.5980987000075,2.0163239612948027,None,1,,,,,,levi,001,2023-10-27_12h24.55.145,Oddball_task,2022.2.5,59.94391647561336,
standard,soundFiles/1000Hz_-3dBFS_3s_44.1kHz.wav',None,1000,81,0,324,1,,,,,1097.5817170000082,1098.58319260001,1098.5816211900078,1100.5982540000114,1100.5982540000114,3.011031297812142,None,1,,,,,,levi,001,2023-10-27_12h24.55.145,Oddball_task,2022.2.5,59.94391647561336,
standard,soundFiles/1000Hz_-3dBFS_3s_44.1kHz.wav',None,1000,81,1,325,0,,,,,1100.5982540000114,1101.5813922000088,1101.5828794899994,1103.5807485000114,1103.7473279999977,3.145441187962594,None,1,,,,,,levi,001,2023-10-27_12h24.55.145,Oddball_task,2022.2.5,59.94391647561336,
target,soundFiles/1200Hz_-3dBFS_3s_44.1kHz.wav',t,2000,81,2,326,3,,,,,1103.7473279999977,1104.7479013999982,1104.7489039900088,1106.747820900011,1107.266615200002,3.5060103194056644,t,1,0.8861853999842424,,,,,levi,001,2023-10-27_12h24.55.145,Oddball_task,2022.2.5,59.94391647561336,
standard,soundFiles/1000Hz_-3dBFS_3s_44.1kHz.wav',None,1000,81,3,327,2,,,,,1107.266615200002,1108.265388800006,1108.26459029001,1110.2646764000092,1110.0135542000062,2.738949527924892,None,1,,,,,,levi,001,2023-10-27_12h24.55.145,Oddball_task,2022.2.5,59.94391647561336,
standard,soundFiles/1000Hz_-3dBFS_3s_44.1kHz.wav',None,1000,82,0,328,2,,,,,1110.2646764000092,1111.2656399999978,1111.263924990008,1113.265262300003,1113.6645239000063,3.3904025449005957,None,1,,,,,,levi,001,2023-10-27_12h24.55.145,Oddball_task,2022.2.5,59.94391647561336,
standard,soundFiles/1000Hz_-3dBFS_3s_44.1kHz.wav',None,1000,82,1,329,1,,,,,1113.6645239000063,1114.663862100002,1114.6635938899985,1116.665189300009,1116.264895900007,2.59265244483261,None,1,,1115.6639866000041,,,,levi,001,2023-10-27_12h24.55.145,Oddball_task,2022.2.5,59.94391647561336,
standard,soundFiles/1000Hz_-3dBFS_3s_44.1kHz.wav',None,1000,82,2,330,0,,,,,1116.665189300009,1117.6644457000075,1117.663495490006,1119.6805913999997,1118.7798019000038,2.10002087913246,None,1,,,,,,levi,001,2023-10-27_12h24.55.145,Oddball_task,2022.2.5,59.94391647561336,
target,soundFiles/1200Hz_-3dBFS_3s_44.1kHz.wav',t,2000,82,3,331,3,,,,,1119.6805913999997,1120.6803484999982,1120.6829105900092,1122.680098900004,1121.730643700008,2.0489410047901684,t,1,1.3145790999842575,,,,,levi,001,2023-10-27_12h24.55.145,Oddball_task,2022.2.5,59.94391647561336,
target,soundFiles/1200Hz_-3dBFS_3s_44.1kHz.wav',t,2000,83,0,332,3,,,,,1122.680098900004,1123.6790418000019,1123.6798146900096,1125.6802376999985,1125.1322654000105,2.4494875223779955,t,1,0.8089387999934843,,,,,levi,001,2023-10-27_12h24.55.145,Oddball_task,2022.2.5,59.94391647561336,
standard,soundFiles/1000Hz_-3dBFS_3s_44.1kHz.wav',None,1000,83,1,333,0,,,,,1125.6802376999985,1126.6812802000059,1126.6821703900046,1128.6800005999976,1127.7976984999987,2.102523116185223,None,1,,,,,,levi,001,2023-10-27_12h24.55.145,Oddball_task,2022.2.5,59.94391647561336,
standard,soundFiles/1000Hz_-3dBFS_3s_44.1kHz.wav',None,1000,83,2,334,1,,,,,1128.6800005999976,1129.6798296000052,1129.680760990012,1131.678846499999,1131.762669600008,3.0717750007541174,None,1,,,,,,levi,001,2023-10-27_12h24.55.145,Oddball_task,2022.2.5,59.94391647561336,
standard,soundFiles/1000Hz_-3dBFS_3s_44.1kHz.wav',None,1000,83,3,335,2,,,,,1131.762669600008,1132.7462748000107,1132.7479171900036,1134.7485065000074,1134.8295216999977,3.042859119576978,None,1,,,,,,levi,001,2023-10-27_12h24.55.145,Oddball_task,2022.2.5,59.94391647561336,
standard,soundFiles/1000Hz_-3dBFS_3s_44.1kHz.wav',None,1000,84,0,336,0,,,,,1134.8295216999977,1135.8134294000047,1135.8140270900026,1137.8130693999992,1137.913612400007,3.072066432955726,None,1,,,,,,levi,001,2023-10-27_12h24.55.145,Oddball_task,2022.2.5,59.94391647561336,
standard,soundFiles/1000Hz_-3dBFS_3s_44.1kHz.wav',None,1000,84,1,337,1,,,,,1137.913612400007,1138.9128822000057,1138.911639690005,1140.91507670001,1141.1306588000007,3.2109403442587796,None,1,,1139.9138676000002,,,,levi,001,2023-10-27_12h24.55.145,Oddball_task,2022.2.5,59.94391647561336,
target,soundFiles/1200Hz_-3dBFS_3s_44.1kHz.wav',t,2000,84,2,338,3,,,,,1141.1306588000007,1142.1296877999994,1142.1299724900005,1144.1296425000037,1144.4294965000008,3.2950746966118194,t,1,0.7991436999873258,,,,,levi,001,2023-10-27_12h24.55.145,Oddball_task,2022.2.5,59.94391647561336,
standard,soundFiles/1000Hz_-3dBFS_3s_44.1kHz.wav',None,1000,84,3,339,2,,,,,1144.4294965000008,1145.4290098000056,1145.4301611899996,1147.4294276,1146.7293366000085,2.296744721453529,None,1,,,,,,levi,001,2023-10-27_12h24.55.145,Oddball_task,2022.2.5,59.94391647561336,
standard,soundFiles/1000Hz_-3dBFS_3s_44.1kHz.wav',None,1000,85,0,340,2,,,,,1147.4294276,1148.4290930999996,1148.4299782900039,1150.4291144000017,1150.9287224,3.489536340942207,None,1,,1149.4296222999983,,,,levi,001,2023-10-27_12h24.55.145,Oddball_task,2022.2.5,59.94391647561336,
standard,soundFiles/1000Hz_-3dBFS_3s_44.1kHz.wav',None,1000,85,1,341,1,,,,,1150.9287224,1151.9294367000111,1151.9294368899996,1153.9286939000012,1153.661774200009,2.7324132877037215,None,1,,,,,,levi,001,2023-10-27_12h24.55.145,Oddball_task,2022.2.5,59.94391647561336,
standard,soundFiles/1000Hz_-3dBFS_3s_44.1kHz.wav',None,1000,85,2,342,0,,,,,1153.9286939000012,1154.9281680999993,1154.9293060900077,1156.9283557000017,1157.7453396000055,3.803519300189081,None,1,,,,,,levi,001,2023-10-27_12h24.55.145,Oddball_task,2022.2.5,59.94391647561336,
target,soundFiles/1200Hz_-3dBFS_3s_44.1kHz.wav',t,2000,85,3,343,3,,,,,1157.7453396000055,1158.728363000002,1158.7296074900064,1160.7284330000111,1160.2457017999986,2.4896132316215924,t,1,0.8703765999962343,,,,,levi,001,2023-10-27_12h24.55.145,Oddball_task,2022.2.5,59.94391647561336,
standard,soundFiles/1000Hz_-3dBFS_3s_44.1kHz.wav',None,1000,86,0,344,2,,,,,1160.7284330000111,1161.72830100001,1161.729120890012,1163.7283454999997,1163.1289236000011,2.386916559223022,None,1,,,,,,levi,001,2023-10-27_12h24.55.145,Oddball_task,2022.2.5,59.94391647561336,
standard,soundFiles/1000Hz_-3dBFS_3s_44.1kHz.wav',None,1000,86,1,345,0,,,,,1163.7283454999997,1164.7281457000063,1164.728900590008,1166.7275895000057,1167.3613492000004,3.622118428392694,None,1,,,,,,levi,001,2023-10-27_12h24.55.145,Oddball_task,2022.2.5,59.94391647561336,
target,soundFiles/1200Hz_-3dBFS_3s_44.1kHz.wav',t,2000,86,2,346,3,,,,,1167.3613492000004,1168.3620826999977,1168.362124390011,1170.3610572000034,1169.6944025999983,2.3333697251924654,t,1,1.1029447999899276,,,,,levi,001,2023-10-27_12h24.55.145,Oddball_task,2022.2.5,59.94391647561336,
standard,soundFiles/1000Hz_-3dBFS_3s_44.1kHz.wav',None,1000,86,3,347,1,,,,,1170.3610572000034,1171.3628413000115,1171.3632693899985,1173.360940300001,1172.777999500002,2.4023603387805226,None,1,,,,,,levi,001,2023-10-27_12h24.55.145,Oddball_task,2022.2.5,59.94391647561336,
standard,soundFiles/1000Hz_-3dBFS_3s_44.1kHz.wav',None,1000,87,0,348,1,,,,,1173.360940300001,1174.3604465000099,1174.3605674900014,1176.3611844999978,1176.5943670999986,3.2237012013352677,None,1,,,,,,levi,001,2023-10-27_12h24.55.145,Oddball_task,2022.2.5,59.94391647561336,
standard,soundFiles/1000Hz_-3dBFS_3s_44.1kHz.wav',None,1000,87,1,349,2,,,,,1176.5943670999986,1177.5945340000035,1177.5944913900007,1179.5940726000117,1178.6274391000043,2.0301857253011306,None,1,,,,,,levi,001,2023-10-27_12h24.55.145,Oddball_task,2022.2.5,59.94391647561336,
standard,soundFiles/1000Hz_-3dBFS_3s_44.1kHz.wav',None,1000,87,2,350,0,,,,,1179.5940726000117,1180.596068400002,1180.5965608899992,1182.6118672000011,1182.0272423999995,2.4264116096528348,None,1,,1181.5942043000105,,,,levi,001,2023-10-27_12h24.55.145,Oddball_task,2022.2.5,59.94391647561336,
target,soundFiles/1200Hz_-3dBFS_3s_44.1kHz.wav',t,2000,87,3,351,3,,,,,1182.6118672000011,1183.5941183000105,1183.5943232900013,1185.5935158000066,1185.3104378999997,2.697826255237396,t,1,0.8375643999897875,,,,,levi,001,2023-10-27_12h24.55.145,Oddball_task,2022.2.5,59.94391647561336,
standard,soundFiles/1000Hz_-3dBFS_3s_44.1kHz.wav',None,1000,88,0,352,0,,,,,1185.5935158000066,1186.5932642999978,1186.5940708900002,1188.59295440001,1189.259833700009,3.6618605144044944,None,1,,,,,,levi,001,2023-10-27_12h24.55.145,Oddball_task,2022.2.5,59.94391647561336,
standard,soundFiles/1000Hz_-3dBFS_3s_44.1kHz.wav',None,1000,88,1,353,1,,,,,1189.259833700009,1190.2596649000043,1190.262959490005,1192.2621060000092,1192.0593350999989,2.78513256746271,None,1,,,,,,levi,001,2023-10-27_12h24.55.145,Oddball_task,2022.2.5,59.94391647561336,
standard,soundFiles/1000Hz_-3dBFS_3s_44.1kHz.wav',None,1000,88,2,354,2,,,,,1192.2621060000092,1193.260087600007,1193.2602064900116,1195.2610165000078,1194.7114550000115,2.4375891324112655,None,1,,,,,,levi,001,2023-10-27_12h24.55.145,Oddball_task,2022.2.5,59.94391647561336,
target,soundFiles/1200Hz_-3dBFS_3s_44.1kHz.wav',t,2000,88,3,355,3,,,,,1195.2610165000078,1196.259624600003,1196.260267690012,1198.26017590001,1199.2440384000074,3.9765867447313705,t,1,0.9148858999978984,,,,,levi,001,2023-10-27_12h24.55.145,Oddball_task,2022.2.5,59.94391647561336,
standard,soundFiles/1000Hz_-3dBFS_3s_44.1kHz.wav',None,1000,89,0,356,2,,,,,1199.2440384000074,1200.2432999000011,1200.243293689999,1202.2433328000043,1202.4099889000063,3.153281369178363,None,1,,,,,,levi,001,2023-10-27_12h24.55.145,Oddball_task,2022.2.5,59.94391647561336,
standard,soundFiles/1000Hz_-3dBFS_3s_44.1kHz.wav',None,1000,89,1,357,1,,,,,1202.4099889000063,1203.4092892000044,1203.408830690007,1205.4102865000023,1204.6926026,2.2764777472381788,None,1,,,,,,levi,001,2023-10-27_12h24.55.145,Oddball_task,2022.2.5,59.94391647561336,
target,soundFiles/1200Hz_-3dBFS_3s_44.1kHz.wav',t,2000,89,2,358,3,,,,,1205.4102865000023,1206.4106122000085,1206.4092637900017,1208.426199499998,1208.7592321999982,3.3367904994183544,t,1,0.8902730999834603,,,,,levi,001,2023-10-27_12h24.55.145,Oddball_task,2022.2.5,59.94391647561336,
standard,soundFiles/1000Hz_-3dBFS_3s_44.1kHz.wav',None,1000,89,3,359,0,,,,,1208.7592321999982,1209.759489700009,1209.7599749900096,1211.7591373000032,1212.1913792999985,3.430860570321972,None,1,,,,,,levi,001,2023-10-27_12h24.55.145,Oddball_task,2022.2.5,59.94391647561336,
standard,soundFiles/1000Hz_-3dBFS_3s_44.1kHz.wav',None,1000,90,0,360,1,,,,,1212.1913792999985,1213.1911624000059,1213.191661989999,1215.1914117999986,1215.4582740000042,3.258924934308789,None,1,,,,,,levi,001,2023-10-27_12h24.55.145,Oddball_task,2022.2.5,59.94391647561336,
target,soundFiles/1200Hz_-3dBFS_3s_44.1kHz.wav',t,2000,90,1,361,3,,,,,1215.4582740000042,1216.4576510000043,1216.4584157900085,1218.4586535999988,1218.5254945000052,3.0578846385130634,t,1,0.905618399992818,,,,,levi,001,2023-10-27_12h24.55.145,Oddball_task,2022.2.5,59.94391647561336,
