trial,file,corrAns,tone,trials_2.thisRepN,trials_2.thisTrialN,trials_2.thisN,trials_2.thisIndex,instructions.started,key_resp_1.started,key_resp_1.keys,key_resp_1.rt,fixation.started,response.started,sound_1.started,response.stopped,response.keys,response.corr,response.rt,sound_1.stopped,fixation.stopped,thank_you.started,exit_exp.started,thank_you.stopped,exit_exp.keys,exit_exp.rt,participant,session,date,expName,psychopyVersion,frameRate,
,,,,,,,,46.93849579998641,46.93849579998641,space,57.496065399987856,,,,,,,,,,,,,,,levi_25_10_23_hugin07,001,2023-10-25_13h40.59.164,Oddball_task,2022.2.5,60.19838980685015,
standard,soundFiles/1000Hz_-3dBFS_3s_44.1kHz.wav',None,1000,0,0,0,0,,,,,104.48543929998414,105.4526724999887,105.4526036299998,108.45307089999551,None,1,,,,,,,,,levi_25_10_23_hugin07,001,2023-10-25_13h40.59.164,Oddball_task,2022.2.5,60.19838980685015,
standard,soundFiles/1000Hz_-3dBFS_3s_44.1kHz.wav',None,1000,0,1,1,1,,,,,108.46967809999478,109.45209779997822,109.45190682999092,112.45327909998014,None,1,,,,,,,,,levi_25_10_23_hugin07,001,2023-10-25_13h40.59.164,Oddball_task,2022.2.5,60.19838980685015,
target,soundFiles/1200Hz_-3dBFS_3s_44.1kHz.wav',t,2000,0,2,2,3,,,,,112.47009669998079,113.45270080000046,113.454092329985,116.45352139999159,t,1,1.5663810999831185,,,,,,,,levi_25_10_23_hugin07,001,2023-10-25_13h40.59.164,Oddball_task,2022.2.5,60.19838980685015,
standard,soundFiles/1000Hz_-3dBFS_3s_44.1kHz.wav',None,1000,0,3,3,2,,,,,116.46942779998062,117.4520416999876,117.45276862997562,120.45331109999097,None,1,,118.45339179999428,,,,,,,levi_25_10_23_hugin07,001,2023-10-25_13h40.59.164,Oddball_task,2022.2.5,60.19838980685015,
standard,soundFiles/1000Hz_-3dBFS_3s_44.1kHz.wav',None,1000,1,0,4,0,,,,,120.47101559999282,121.4527637999854,121.45234362999909,124.45217199999024,None,1,,122.45310959999915,,,,,,,levi_25_10_23_hugin07,001,2023-10-25_13h40.59.164,Oddball_task,2022.2.5,60.19838980685015,
standard,soundFiles/1000Hz_-3dBFS_3s_44.1kHz.wav',None,1000,1,1,5,1,,,,,124.46910759998718,125.4530998999835,125.45308193000383,128.45432019999134,None,1,,126.45241009999881,,,,,,,levi_25_10_23_hugin07,001,2023-10-25_13h40.59.164,Oddball_task,2022.2.5,60.19838980685015,
target,soundFiles/1200Hz_-3dBFS_3s_44.1kHz.wav',t,2000,1,2,6,3,,,,,128.4702674,129.45221619997756,129.45294433000382,132.4522587999818,t,1,1.6066273000033107,130.4527169999783,,,,,,,levi_25_10_23_hugin07,001,2023-10-25_13h40.59.164,Oddball_task,2022.2.5,60.19838980685015,
standard,soundFiles/1000Hz_-3dBFS_3s_44.1kHz.wav',None,1000,1,3,7,2,,,,,132.46893459997955,133.45221190000302,133.45223952999223,136.45245660000364,None,1,,134.45185159999528,,,,,,,levi_25_10_23_hugin07,001,2023-10-25_13h40.59.164,Oddball_task,2022.2.5,60.19838980685015,
standard,soundFiles/1000Hz_-3dBFS_3s_44.1kHz.wav',None,1000,2,0,8,2,,,,,136.4698332999833,137.45256629999494,137.45318742999225,140.45252019999316,None,1,,,,,,,,,levi_25_10_23_hugin07,001,2023-10-25_13h40.59.164,Oddball_task,2022.2.5,60.19838980685015,
standard,soundFiles/1000Hz_-3dBFS_3s_44.1kHz.wav',None,1000,2,1,9,1,,,,,140.4694993000012,141.45343949997914,141.45315742999665,144.4522672999883,None,1,,,,,,,,,levi_25_10_23_hugin07,001,2023-10-25_13h40.59.164,Oddball_task,2022.2.5,60.19838980685015,
target,soundFiles/1200Hz_-3dBFS_3s_44.1kHz.wav',t,2000,2,2,10,3,,,,,144.4693483999872,145.45242299998063,145.45253862999962,148.45329129998572,t,1,1.383204299985664,,,,,,,,levi_25_10_23_hugin07,001,2023-10-25_13h40.59.164,Oddball_task,2022.2.5,60.19838980685015,
standard,soundFiles/1000Hz_-3dBFS_3s_44.1kHz.wav',None,1000,2,3,11,0,,,,,148.47081269999035,149.45245769998292,149.45223642999773,152.45321589999367,None,1,,,,,,,,,levi_25_10_23_hugin07,001,2023-10-25_13h40.59.164,Oddball_task,2022.2.5,60.19838980685015,
standard,soundFiles/1000Hz_-3dBFS_3s_44.1kHz.wav',None,1000,3,0,12,1,,,,,152.46921819998533,153.45266300000367,153.45260702999659,156.4536263999762,None,1,,154.45245329997852,,,,,,,levi_25_10_23_hugin07,001,2023-10-25_13h40.59.164,Oddball_task,2022.2.5,60.19838980685015,
standard,soundFiles/1000Hz_-3dBFS_3s_44.1kHz.wav',None,1000,3,1,13,0,,,,,156.46910299998126,157.45216240000445,157.4524846299959,,None,1,,,,,,,,,levi_25_10_23_hugin07,001,2023-10-25_13h40.59.164,Oddball_task,2022.2.5,60.19838980685015,
target,soundFiles/1200Hz_-3dBFS_3s_44.1kHz.wav',t,2000,3,2,14,3,,,,,160.47166499999003,161.45270850000088,161.45253412999446,164.45445679998375,t,1,0.8617691000108607,,,,,,,,levi_25_10_23_hugin07,001,2023-10-25_13h40.59.164,Oddball_task,2022.2.5,60.19838980685015,
standard,soundFiles/1000Hz_-3dBFS_3s_44.1kHz.wav',None,1000,3,3,15,2,,,,,164.4691610999871,165.46456759999273,165.44230072998326,,None,1,,,,,,,,,levi_25_10_23_hugin07,001,2023-10-25_13h40.59.164,Oddball_task,2022.2.5,60.19838980685015,
standard,soundFiles/1000Hz_-3dBFS_3s_44.1kHz.wav',None,1000,4,0,16,0,,,,,168.46939640000346,169.45367980000447,169.4530095299764,172.453237299982,None,1,,,,,,,,,levi_25_10_23_hugin07,001,2023-10-25_13h40.59.164,Oddball_task,2022.2.5,60.19838980685015,
standard,soundFiles/1000Hz_-3dBFS_3s_44.1kHz.wav',None,1000,4,1,17,2,,,,,172.46960389998276,173.4536483999982,173.4537358299771,176.45427079999354,None,1,,,,,,,,,levi_25_10_23_hugin07,001,2023-10-25_13h40.59.164,Oddball_task,2022.2.5,60.19838980685015,
target,soundFiles/1200Hz_-3dBFS_3s_44.1kHz.wav',t,2000,4,2,18,3,,,,,176.46945699999924,177.45361489997595,177.45347962997621,,t,1,0.8931188999849837,,,,,,,,levi_25_10_23_hugin07,001,2023-10-25_13h40.59.164,Oddball_task,2022.2.5,60.19838980685015,
standard,soundFiles/1000Hz_-3dBFS_3s_44.1kHz.wav',None,1000,4,3,19,1,,,,,180.4694058999885,181.45289529999718,181.45291212999146,184.45264929998666,None,1,,182.45364459999837,,,,,,,levi_25_10_23_hugin07,001,2023-10-25_13h40.59.164,Oddball_task,2022.2.5,60.19838980685015,
standard,soundFiles/1000Hz_-3dBFS_3s_44.1kHz.wav',None,1000,5,0,20,1,,,,,184.46987919998355,185.45309399999678,185.45331232998288,188.45322239998495,None,1,,,,,,,,,levi_25_10_23_hugin07,001,2023-10-25_13h40.59.164,Oddball_task,2022.2.5,60.19838980685015,
standard,soundFiles/1000Hz_-3dBFS_3s_44.1kHz.wav',None,1000,5,1,21,0,,,,,188.46979199998896,189.4526100999792,189.45290802998935,,None,1,,,,,,,,,levi_25_10_23_hugin07,001,2023-10-25_13h40.59.164,Oddball_task,2022.2.5,60.19838980685015,
target,soundFiles/1200Hz_-3dBFS_3s_44.1kHz.wav',t,2000,5,2,22,3,,,,,192.47357259999262,193.45305369998096,193.4528442299983,196.4528236000042,t,1,1.215185000008205,194.45341129999724,,,,,,,levi_25_10_23_hugin07,001,2023-10-25_13h40.59.164,Oddball_task,2022.2.5,60.19838980685015,
standard,soundFiles/1000Hz_-3dBFS_3s_44.1kHz.wav',None,1000,5,3,23,2,,,,,196.46959150000475,197.45380449999357,197.45303973000264,200.45302970000193,None,1,,,,,,,,,levi_25_10_23_hugin07,001,2023-10-25_13h40.59.164,Oddball_task,2022.2.5,60.19838980685015,
standard,soundFiles/1000Hz_-3dBFS_3s_44.1kHz.wav',None,1000,6,0,24,2,,,,,200.46975219997694,201.45285829997738,201.45373692998547,204.45256750000408,None,1,,,,,,,,,levi_25_10_23_hugin07,001,2023-10-25_13h40.59.164,Oddball_task,2022.2.5,60.19838980685015,
standard,soundFiles/1000Hz_-3dBFS_3s_44.1kHz.wav',None,1000,6,1,25,0,,,,,204.46934290000354,205.45381360000465,205.45363203000161,,None,1,,,,,,,,,levi_25_10_23_hugin07,001,2023-10-25_13h40.59.164,Oddball_task,2022.2.5,60.19838980685015,
target,soundFiles/1200Hz_-3dBFS_3s_44.1kHz.wav',t,2000,6,2,26,3,,,,,208.45540219999384,209.45374999998603,209.45423132999568,,t,1,1.1172274999844376,,,,,,,,levi_25_10_23_hugin07,001,2023-10-25_13h40.59.164,Oddball_task,2022.2.5,60.19838980685015,
standard,soundFiles/1000Hz_-3dBFS_3s_44.1kHz.wav',None,1000,6,3,27,1,,,,,212.47021400000085,213.45283850000123,213.45302082997515,216.45235330000287,None,1,,,,,,,,,levi_25_10_23_hugin07,001,2023-10-25_13h40.59.164,Oddball_task,2022.2.5,60.19838980685015,
standard,soundFiles/1000Hz_-3dBFS_3s_44.1kHz.wav',None,1000,7,0,28,1,,,,,216.469706999982,217.45277979999082,217.45251782998676,220.45284959999844,None,1,,,,,,,,,levi_25_10_23_hugin07,001,2023-10-25_13h40.59.164,Oddball_task,2022.2.5,60.19838980685015,
standard,soundFiles/1000Hz_-3dBFS_3s_44.1kHz.wav',None,1000,7,1,29,0,,,,,220.47010239999508,221.4539435999759,221.45333562998567,224.45314239998697,None,1,,,,,,,,,levi_25_10_23_hugin07,001,2023-10-25_13h40.59.164,Oddball_task,2022.2.5,60.19838980685015,
target,soundFiles/1200Hz_-3dBFS_3s_44.1kHz.wav',t,2000,7,2,30,3,,,,,224.4698637999827,225.45344149999437,225.4536807299941,228.4536620999861,t,1,0.8379612000135239,,,,,,,,levi_25_10_23_hugin07,001,2023-10-25_13h40.59.164,Oddball_task,2022.2.5,60.19838980685015,
standard,soundFiles/1000Hz_-3dBFS_3s_44.1kHz.wav',None,1000,7,3,31,2,,,,,228.4704345999926,229.4529355999839,229.453133229987,232.45277939998778,None,1,,,,,,,,,levi_25_10_23_hugin07,001,2023-10-25_13h40.59.164,Oddball_task,2022.2.5,60.19838980685015,
standard,soundFiles/1000Hz_-3dBFS_3s_44.1kHz.wav',None,1000,8,0,32,1,,,,,232.47029939998174,233.45300009998027,233.4534297300037,236.4539502999978,None,1,,,,,,,,,levi_25_10_23_hugin07,001,2023-10-25_13h40.59.164,Oddball_task,2022.2.5,60.19838980685015,
standard,soundFiles/1000Hz_-3dBFS_3s_44.1kHz.wav',None,1000,8,1,33,0,,,,,236.4698570999899,237.43734229999245,237.43757493000012,240.43711489997804,None,1,,,,,,,,,levi_25_10_23_hugin07,001,2023-10-25_13h40.59.164,Oddball_task,2022.2.5,60.19838980685015,
target,soundFiles/1200Hz_-3dBFS_3s_44.1kHz.wav',t,2000,8,2,34,3,,,,,240.4703193999885,241.45302939999965,241.4532866299909,244.4531200999918,t,1,1.1270220000005793,,,,,,,,levi_25_10_23_hugin07,001,2023-10-25_13h40.59.164,Oddball_task,2022.2.5,60.19838980685015,
standard,soundFiles/1000Hz_-3dBFS_3s_44.1kHz.wav',None,1000,8,3,35,2,,,,,244.4705359999789,245.45358509998186,245.45384882999352,248.45275689999107,None,1,,,,,,,,,levi_25_10_23_hugin07,001,2023-10-25_13h40.59.164,Oddball_task,2022.2.5,60.19838980685015,
standard,soundFiles/1000Hz_-3dBFS_3s_44.1kHz.wav',None,1000,9,0,36,0,,,,,248.46983309998177,249.453011399979,249.45318532997626,,None,1,,,,,,,,,levi_25_10_23_hugin07,001,2023-10-25_13h40.59.164,Oddball_task,2022.2.5,60.19838980685015,
target,soundFiles/1200Hz_-3dBFS_3s_44.1kHz.wav',t,2000,9,1,37,3,,,,,252.48959439998725,253.45359489999828,253.45292712998926,256.45424150000326,t,1,0.9020279000105802,,,,,,,,levi_25_10_23_hugin07,001,2023-10-25_13h40.59.164,Oddball_task,2022.2.5,60.19838980685015,
standard,soundFiles/1000Hz_-3dBFS_3s_44.1kHz.wav',None,1000,9,2,38,2,,,,,256.4709167999972,257.4531784999999,257.4535479300015,260.45389529998647,None,1,,258.4529536999762,,,,,,,levi_25_10_23_hugin07,001,2023-10-25_13h40.59.164,Oddball_task,2022.2.5,60.19838980685015,
standard,soundFiles/1000Hz_-3dBFS_3s_44.1kHz.wav',None,1000,9,3,39,1,,,,,260.4694808999775,261.45300379997934,261.4532390299777,264.45430389998364,None,1,,262.4542369999981,,,,,,,levi_25_10_23_hugin07,001,2023-10-25_13h40.59.164,Oddball_task,2022.2.5,60.19838980685015,
standard,soundFiles/1000Hz_-3dBFS_3s_44.1kHz.wav',None,1000,10,0,40,0,,,,,264.47106419998454,265.4389024999982,265.43777452997745,268.4389375000028,None,1,,,,,,,,,levi_25_10_23_hugin07,001,2023-10-25_13h40.59.164,Oddball_task,2022.2.5,60.19838980685015,
standard,soundFiles/1000Hz_-3dBFS_3s_44.1kHz.wav',None,1000,10,1,41,1,,,,,268.45554110000376,269.4543333000038,269.4534972299938,272.453586299991,None,1,,,,,,,,,levi_25_10_23_hugin07,001,2023-10-25_13h40.59.164,Oddball_task,2022.2.5,60.19838980685015,
target,soundFiles/1200Hz_-3dBFS_3s_44.1kHz.wav',t,2000,10,2,42,3,,,,,272.47006779999356,273.4368653999991,273.4376766299887,276.4376194999786,t,1,0.8077116000058595,,,,,,,,levi_25_10_23_hugin07,001,2023-10-25_13h40.59.164,Oddball_task,2022.2.5,60.19838980685015,
standard,soundFiles/1000Hz_-3dBFS_3s_44.1kHz.wav',None,1000,10,3,43,2,,,,,276.4707261000003,277.45315879999544,277.45415012998853,280.4538285000017,None,1,,,,,,,,,levi_25_10_23_hugin07,001,2023-10-25_13h40.59.164,Oddball_task,2022.2.5,60.19838980685015,
standard,soundFiles/1000Hz_-3dBFS_3s_44.1kHz.wav',None,1000,11,0,44,0,,,,,280.47036479998496,281.45349230000284,281.45366702997705,284.45335169998,None,1,,,,,,,,,levi_25_10_23_hugin07,001,2023-10-25_13h40.59.164,Oddball_task,2022.2.5,60.19838980685015,
standard,soundFiles/1000Hz_-3dBFS_3s_44.1kHz.wav',None,1000,11,1,45,1,,,,,284.4702194999845,285.4372155999881,285.43780582998295,288.43684759997996,None,1,,,,,,,,,levi_25_10_23_hugin07,001,2023-10-25_13h40.59.164,Oddball_task,2022.2.5,60.19838980685015,
target,soundFiles/1200Hz_-3dBFS_3s_44.1kHz.wav',t,2000,11,2,46,3,,,,,288.4702603999758,289.4369159999769,289.4377788299811,292.4396346999856,t,1,1.12713830001303,,,,,,,,levi_25_10_23_hugin07,001,2023-10-25_13h40.59.164,Oddball_task,2022.2.5,60.19838980685015,
standard,soundFiles/1000Hz_-3dBFS_3s_44.1kHz.wav',None,1000,11,3,47,2,,,,,292.456306099979,293.45389299999806,293.45408313000223,296.4552222999919,None,1,,,,,,,,,levi_25_10_23_hugin07,001,2023-10-25_13h40.59.164,Oddball_task,2022.2.5,60.19838980685015,
target,soundFiles/1200Hz_-3dBFS_3s_44.1kHz.wav',t,2000,12,0,48,3,,,,,296.4700862999889,297.43699919999926,297.4381338299776,300.4585053999908,t,1,1.0395700999943074,,,,,,,,levi_25_10_23_hugin07,001,2023-10-25_13h40.59.164,Oddball_task,2022.2.5,60.19838980685015,
standard,soundFiles/1000Hz_-3dBFS_3s_44.1kHz.wav',None,1000,12,1,49,2,,,,,300.4929323999968,301.45365369998035,301.453717629984,304.4546532999957,None,1,,,,,,,,,levi_25_10_23_hugin07,001,2023-10-25_13h40.59.164,Oddball_task,2022.2.5,60.19838980685015,
standard,soundFiles/1000Hz_-3dBFS_3s_44.1kHz.wav',None,1000,12,2,50,1,,,,,304.4710707999766,305.45401769998716,305.4542500299925,308.45346999997855,None,1,,,,,,,,,levi_25_10_23_hugin07,001,2023-10-25_13h40.59.164,Oddball_task,2022.2.5,60.19838980685015,
standard,soundFiles/1000Hz_-3dBFS_3s_44.1kHz.wav',None,1000,12,3,51,0,,,,,308.4704257999838,309.4384306999855,309.4381110299786,,None,1,,,,,,,,,levi_25_10_23_hugin07,001,2023-10-25_13h40.59.164,Oddball_task,2022.2.5,60.19838980685015,
standard,soundFiles/1000Hz_-3dBFS_3s_44.1kHz.wav',None,1000,13,0,52,0,,,,,312.47439289998147,313.43687949999,313.4376417299849,316.43888380000135,None,1,,,,,,,,,levi_25_10_23_hugin07,001,2023-10-25_13h40.59.164,Oddball_task,2022.2.5,60.19838980685015,
target,soundFiles/1200Hz_-3dBFS_3s_44.1kHz.wav',t,2000,13,1,53,3,,,,,316.45479229997727,317.4538250999758,317.45402902999774,320.45327599998564,t,1,0.8788357000157703,,,,,,,,levi_25_10_23_hugin07,001,2023-10-25_13h40.59.164,Oddball_task,2022.2.5,60.19838980685015,
standard,soundFiles/1000Hz_-3dBFS_3s_44.1kHz.wav',None,1000,13,2,54,2,,,,,320.4700709999888,321.4439722999814,321.4407138299779,324.4552138999861,None,1,,,,,,,,,levi_25_10_23_hugin07,001,2023-10-25_13h40.59.164,Oddball_task,2022.2.5,60.19838980685015,
standard,soundFiles/1000Hz_-3dBFS_3s_44.1kHz.wav',None,1000,13,3,55,1,,,,,324.4728729999915,325.45353369999793,325.45344372999386,328.45396990000154,None,1,,,,,,,,,levi_25_10_23_hugin07,001,2023-10-25_13h40.59.164,Oddball_task,2022.2.5,60.19838980685015,
standard,soundFiles/1000Hz_-3dBFS_3s_44.1kHz.wav',None,1000,14,0,56,0,,,,,328.47109289999935,329.43775469998945,329.43783242998177,332.43838469998445,None,1,,,,,,,,,levi_25_10_23_hugin07,001,2023-10-25_13h40.59.164,Oddball_task,2022.2.5,60.19838980685015,
standard,soundFiles/1000Hz_-3dBFS_3s_44.1kHz.wav',None,1000,14,1,57,2,,,,,332.470587799995,333.4405365999846,333.44054992998133,336.44205529999454,None,1,,,,,,,,,levi_25_10_23_hugin07,001,2023-10-25_13h40.59.164,Oddball_task,2022.2.5,60.19838980685015,
target,soundFiles/1200Hz_-3dBFS_3s_44.1kHz.wav',t,2000,14,2,58,3,,,,,336.4725527999981,337.43764970000484,337.4375506299897,340.4369194000028,t,1,1.8563032999809366,,,,,,,,levi_25_10_23_hugin07,001,2023-10-25_13h40.59.164,Oddball_task,2022.2.5,60.19838980685015,
standard,soundFiles/1000Hz_-3dBFS_3s_44.1kHz.wav',None,1000,14,3,59,1,,,,,340.4707353999838,341.4592461999855,341.44198342998277,,None,1,,,,,,,,,levi_25_10_23_hugin07,001,2023-10-25_13h40.59.164,Oddball_task,2022.2.5,60.19838980685015,
standard,soundFiles/1000Hz_-3dBFS_3s_44.1kHz.wav',None,1000,15,0,60,0,,,,,344.4708329999994,345.4371967999905,345.438127029984,348.4378637999762,None,1,,,,,,,,,levi_25_10_23_hugin07,001,2023-10-25_13h40.59.164,Oddball_task,2022.2.5,60.19838980685015,
standard,soundFiles/1000Hz_-3dBFS_3s_44.1kHz.wav',None,1000,15,1,61,1,,,,,348.4710508999997,349.43773889998556,349.43753052998215,352.43757179999375,None,1,,350.4381547999801,,,,,,,levi_25_10_23_hugin07,001,2023-10-25_13h40.59.164,Oddball_task,2022.2.5,60.19838980685015,
target,soundFiles/1200Hz_-3dBFS_3s_44.1kHz.wav',t,2000,15,2,62,3,,,,,352.47116509999614,353.43850139999995,353.43774343000257,356.43767039998784,t,1,0.9825064000033308,,,,,,,,levi_25_10_23_hugin07,001,2023-10-25_13h40.59.164,Oddball_task,2022.2.5,60.19838980685015,
standard,soundFiles/1000Hz_-3dBFS_3s_44.1kHz.wav',None,1000,15,3,63,2,,,,,356.47068460000446,357.4382735999825,357.4384269299975,360.4534170999832,None,1,,,,,,,,,levi_25_10_23_hugin07,001,2023-10-25_13h40.59.164,Oddball_task,2022.2.5,60.19838980685015,
standard,soundFiles/1000Hz_-3dBFS_3s_44.1kHz.wav',None,1000,16,0,64,2,,,,,360.4705134999822,361.4393136999861,361.438135329989,364.45469789998606,None,1,,,,,,,,,levi_25_10_23_hugin07,001,2023-10-25_13h40.59.164,Oddball_task,2022.2.5,60.19838980685015,
target,soundFiles/1200Hz_-3dBFS_3s_44.1kHz.wav',t,2000,16,1,65,3,,,,,364.4712735999783,365.45475919998717,365.4544043300033,368.45470030000433,t,1,0.8146491999796126,,,,,,,,levi_25_10_23_hugin07,001,2023-10-25_13h40.59.164,Oddball_task,2022.2.5,60.19838980685015,
standard,soundFiles/1000Hz_-3dBFS_3s_44.1kHz.wav',None,1000,16,2,66,0,,,,,368.471329299995,369.4376280999859,369.4381117299839,372.46033119998174,None,1,,,,,,,,,levi_25_10_23_hugin07,001,2023-10-25_13h40.59.164,Oddball_task,2022.2.5,60.19838980685015,
standard,soundFiles/1000Hz_-3dBFS_3s_44.1kHz.wav',None,1000,16,3,67,1,,,,,372.5103533999936,373.4374409999873,373.43751712999654,376.43879089999245,None,1,,,,,,,,,levi_25_10_23_hugin07,001,2023-10-25_13h40.59.164,Oddball_task,2022.2.5,60.19838980685015,
standard,soundFiles/1000Hz_-3dBFS_3s_44.1kHz.wav',None,1000,17,0,68,2,,,,,376.45522029997665,377.4549914999807,377.45451903000355,,None,1,,,,,,,,,levi_25_10_23_hugin07,001,2023-10-25_13h40.59.164,Oddball_task,2022.2.5,60.19838980685015,
target,soundFiles/1200Hz_-3dBFS_3s_44.1kHz.wav',t,2000,17,1,69,3,,,,,380.45491579998634,381.43841289999546,381.4381426299864,384.4612936999765,t,1,1.2702969999809284,382.4384165999945,,,,,,,levi_25_10_23_hugin07,001,2023-10-25_13h40.59.164,Oddball_task,2022.2.5,60.19838980685015,
standard,soundFiles/1000Hz_-3dBFS_3s_44.1kHz.wav',None,1000,17,2,70,1,,,,,384.5108171000029,385.4376151000033,385.4374779299891,388.4386214999831,None,1,,,,,,,,,levi_25_10_23_hugin07,001,2023-10-25_13h40.59.164,Oddball_task,2022.2.5,60.19838980685015,
standard,soundFiles/1000Hz_-3dBFS_3s_44.1kHz.wav',None,1000,17,3,71,0,,,,,388.4551733999979,389.4411115999974,389.43988912998464,,None,1,,,,,,,,,levi_25_10_23_hugin07,001,2023-10-25_13h40.59.164,Oddball_task,2022.2.5,60.19838980685015,
standard,soundFiles/1000Hz_-3dBFS_3s_44.1kHz.wav',None,1000,18,0,72,0,,,,,392.4553003000037,393.43975619997946,393.438361229992,396.4557109999878,None,1,,,396.4557109999878,,,,,,levi_25_10_23_hugin07,001,2023-10-25_13h40.59.164,Oddball_task,2022.2.5,60.19838980685015,
standard,soundFiles/1000Hz_-3dBFS_3s_44.1kHz.wav',None,1000,18,1,73,2,,,,,396.4557109999878,397.46295799998916,397.44252732999155,,None,1,,,,,,,,,levi_25_10_23_hugin07,001,2023-10-25_13h40.59.164,Oddball_task,2022.2.5,60.19838980685015,
standard,soundFiles/1000Hz_-3dBFS_3s_44.1kHz.wav',None,1000,18,2,74,1,,,,,400.4712156000023,401.4387444999884,401.4378142299887,404.45458119999967,None,1,,,,,,,,,levi_25_10_23_hugin07,001,2023-10-25_13h40.59.164,Oddball_task,2022.2.5,60.19838980685015,
target,soundFiles/1200Hz_-3dBFS_3s_44.1kHz.wav',t,2000,18,3,75,3,,,,,404.47122539998963,405.438175999996,405.43816472998003,408.43773629999487,t,1,0.8148522000119556,,,,,,,,levi_25_10_23_hugin07,001,2023-10-25_13h40.59.164,Oddball_task,2022.2.5,60.19838980685015,
standard,soundFiles/1000Hz_-3dBFS_3s_44.1kHz.wav',None,1000,19,0,76,2,,,,,408.47092009999324,409.45452169998316,409.45458502998224,412.4542164999875,None,1,,,,,,,,,levi_25_10_23_hugin07,001,2023-10-25_13h40.59.164,Oddball_task,2022.2.5,60.19838980685015,
target,soundFiles/1200Hz_-3dBFS_3s_44.1kHz.wav',t,2000,19,1,77,3,,,,,412.4708272999851,413.4538338999846,413.4540509299899,416.4547418000002,t,1,1.1029876999964472,,,,,,,,levi_25_10_23_hugin07,001,2023-10-25_13h40.59.164,Oddball_task,2022.2.5,60.19838980685015,
standard,soundFiles/1000Hz_-3dBFS_3s_44.1kHz.wav',None,1000,19,2,78,1,,,,,416.47136429999955,417.43861939999624,417.43903812999486,420.43766799999867,None,1,,,,,,,,,levi_25_10_23_hugin07,001,2023-10-25_13h40.59.164,Oddball_task,2022.2.5,60.19838980685015,
standard,soundFiles/1000Hz_-3dBFS_3s_44.1kHz.wav',None,1000,19,3,79,0,,,,,420.4708114999812,421.43903129998944,421.43872692998264,424.4382090999861,None,1,,,,,,,,,levi_25_10_23_hugin07,001,2023-10-25_13h40.59.164,Oddball_task,2022.2.5,60.19838980685015,
standard,soundFiles/1000Hz_-3dBFS_3s_44.1kHz.wav',None,1000,20,0,80,2,,,,,424.4725829999952,425.4388108999992,425.43929012999286,428.439036900003,None,1,,,,,,,,,levi_25_10_23_hugin07,001,2023-10-25_13h40.59.164,Oddball_task,2022.2.5,60.19838980685015,
target,soundFiles/1200Hz_-3dBFS_3s_44.1kHz.wav',t,2000,20,1,81,3,,,,,428.4553093999857,429.4381884000031,429.43819912998003,432.4388007999805,t,1,0.855164100008551,,,,,,,,levi_25_10_23_hugin07,001,2023-10-25_13h40.59.164,Oddball_task,2022.2.5,60.19838980685015,
standard,soundFiles/1000Hz_-3dBFS_3s_44.1kHz.wav',None,1000,20,2,82,0,,,,,432.45529919999535,433.4387502000027,433.4378233299998,,None,1,,,,,,,,,levi_25_10_23_hugin07,001,2023-10-25_13h40.59.164,Oddball_task,2022.2.5,60.19838980685015,
standard,soundFiles/1000Hz_-3dBFS_3s_44.1kHz.wav',None,1000,20,3,83,1,,,,,436.45498409998254,437.46234559998265,437.45789182998703,,None,1,,,440.4548835000023,,,,,,levi_25_10_23_hugin07,001,2023-10-25_13h40.59.164,Oddball_task,2022.2.5,60.19838980685015,
target,soundFiles/1200Hz_-3dBFS_3s_44.1kHz.wav',t,2000,21,0,84,3,,,,,440.4713167999871,441.4374011000036,441.43797582999684,444.4383314999868,t,1,0.8395535000017844,,,,,,,,levi_25_10_23_hugin07,001,2023-10-25_13h40.59.164,Oddball_task,2022.2.5,60.19838980685015,
standard,soundFiles/1000Hz_-3dBFS_3s_44.1kHz.wav',None,1000,21,1,85,2,,,,,444.4717002999969,445.45413879997795,445.45405822998725,448.4552278999763,None,1,,,,,,,,,levi_25_10_23_hugin07,001,2023-10-25_13h40.59.164,Oddball_task,2022.2.5,60.19838980685015,
standard,soundFiles/1000Hz_-3dBFS_3s_44.1kHz.wav',None,1000,21,2,86,0,,,,,448.4710419999901,449.43856379998033,449.4375493299798,452.438001100003,None,1,,,,,,,,,levi_25_10_23_hugin07,001,2023-10-25_13h40.59.164,Oddball_task,2022.2.5,60.19838980685015,
standard,soundFiles/1000Hz_-3dBFS_3s_44.1kHz.wav',None,1000,21,3,87,1,,,,,452.47118009999394,453.4383149999776,453.43900063000035,456.43840799998725,None,1,,,,,,,,,levi_25_10_23_hugin07,001,2023-10-25_13h40.59.164,Oddball_task,2022.2.5,60.19838980685015,
standard,soundFiles/1000Hz_-3dBFS_3s_44.1kHz.wav',None,1000,22,0,88,1,,,,,456.47168980000424,457.43813819999923,457.43799802999126,460.4383340999775,None,1,,,,,,,,,levi_25_10_23_hugin07,001,2023-10-25_13h40.59.164,Oddball_task,2022.2.5,60.19838980685015,
standard,soundFiles/1000Hz_-3dBFS_3s_44.1kHz.wav',None,1000,22,1,89,2,,,,,460.471444099996,461.4381117000012,461.4376994299877,464.43871789998957,None,1,,,,,,,,,levi_25_10_23_hugin07,001,2023-10-25_13h40.59.164,Oddball_task,2022.2.5,60.19838980685015,
standard,soundFiles/1000Hz_-3dBFS_3s_44.1kHz.wav',None,1000,22,2,90,0,,,,,464.4544511999993,465.4392414999893,465.4388905299769,468.43808799999533,None,1,,,468.4557820999762,,,,,,levi_25_10_23_hugin07,001,2023-10-25_13h40.59.164,Oddball_task,2022.2.5,60.19838980685015,
target,soundFiles/1200Hz_-3dBFS_3s_44.1kHz.wav',t,2000,22,3,91,3,,,,,468.4557820999762,469.43826619998435,469.4380827299959,472.4382781999884,t,1,1.4317355999955907,,472.45463069999823,,,,,,levi_25_10_23_hugin07,001,2023-10-25_13h40.59.164,Oddball_task,2022.2.5,60.19838980685015,
standard,soundFiles/1000Hz_-3dBFS_3s_44.1kHz.wav',None,1000,23,0,92,2,,,,,472.45463069999823,473.43829729998833,473.43824672999324,476.43900699997903,None,1,,,,,,,,,levi_25_10_23_hugin07,001,2023-10-25_13h40.59.164,Oddball_task,2022.2.5,60.19838980685015,
standard,soundFiles/1000Hz_-3dBFS_3s_44.1kHz.wav',None,1000,23,1,93,0,,,,,476.4551192999934,477.43952309997985,477.439744329988,480.43924680000055,None,1,,,,,,,,,levi_25_10_23_hugin07,001,2023-10-25_13h40.59.164,Oddball_task,2022.2.5,60.19838980685015,
target,soundFiles/1200Hz_-3dBFS_3s_44.1kHz.wav',t,2000,23,2,94,3,,,,,480.45554179998,481.4388650000037,481.43850773000156,484.439555799996,t,1,0.814161399990553,,,,,,,,levi_25_10_23_hugin07,001,2023-10-25_13h40.59.164,Oddball_task,2022.2.5,60.19838980685015,
standard,soundFiles/1000Hz_-3dBFS_3s_44.1kHz.wav',None,1000,23,3,95,1,,,,,484.4554892999877,485.43912439999986,485.4382442300033,488.43901649999316,None,1,,,,,,,,,levi_25_10_23_hugin07,001,2023-10-25_13h40.59.164,Oddball_task,2022.2.5,60.19838980685015,
target,soundFiles/1200Hz_-3dBFS_3s_44.1kHz.wav',t,2000,24,0,96,3,,,,,488.45549219998065,489.4384791999764,489.4383198299969,492.4396382999839,t,1,1.3346237000077963,,,,,,,,levi_25_10_23_hugin07,001,2023-10-25_13h40.59.164,Oddball_task,2022.2.5,60.19838980685015,
standard,soundFiles/1000Hz_-3dBFS_3s_44.1kHz.wav',None,1000,24,1,97,2,,,,,492.45616849997896,493.438311099977,493.4381787299993,496.46085429997765,None,1,,,,,,,,,levi_25_10_23_hugin07,001,2023-10-25_13h40.59.164,Oddball_task,2022.2.5,60.19838980685015,
standard,soundFiles/1000Hz_-3dBFS_3s_44.1kHz.wav',None,1000,24,2,98,1,,,,,496.4935295000032,497.43937819998246,497.4385146299959,500.4411274000013,None,1,,,,,,,,,levi_25_10_23_hugin07,001,2023-10-25_13h40.59.164,Oddball_task,2022.2.5,60.19838980685015,
standard,soundFiles/1000Hz_-3dBFS_3s_44.1kHz.wav',None,1000,24,3,99,0,,,,,500.45763140000054,501.4386425999983,501.4387430299888,504.4387928999786,None,1,,,,,,,,,levi_25_10_23_hugin07,001,2023-10-25_13h40.59.164,Oddball_task,2022.2.5,60.19838980685015,
standard,soundFiles/1000Hz_-3dBFS_3s_44.1kHz.wav',None,1000,25,0,100,0,,,,,504.4549342999817,505.43789439997636,505.4381340299791,508.4394988999993,None,1,,,,,,,,,levi_25_10_23_hugin07,001,2023-10-25_13h40.59.164,Oddball_task,2022.2.5,60.19838980685015,
standard,soundFiles/1000Hz_-3dBFS_3s_44.1kHz.wav',None,1000,25,1,101,1,,,,,508.45624919998227,509.43935929998406,509.4382408299774,512.4385341999878,None,1,,510.4392624000029,,,,,,,levi_25_10_23_hugin07,001,2023-10-25_13h40.59.164,Oddball_task,2022.2.5,60.19838980685015,
standard,soundFiles/1000Hz_-3dBFS_3s_44.1kHz.wav',None,1000,25,2,102,2,,,,,512.4550511999987,513.438943199988,513.4390247299801,516.4611410999787,None,1,,,,,,,,,levi_25_10_23_hugin07,001,2023-10-25_13h40.59.164,Oddball_task,2022.2.5,60.19838980685015,
target,soundFiles/1200Hz_-3dBFS_3s_44.1kHz.wav',t,2000,25,3,103,3,,,,,516.5121156999958,517.4387814999791,517.4384475299797,520.4383720000042,t,1,0.8712120999989565,,,,,,,,levi_25_10_23_hugin07,001,2023-10-25_13h40.59.164,Oddball_task,2022.2.5,60.19838980685015,
standard,soundFiles/1000Hz_-3dBFS_3s_44.1kHz.wav',None,1000,26,0,104,1,,,,,520.4718842000002,521.4390770999889,521.4383644299872,524.4401357999886,None,1,,,,,,,,,levi_25_10_23_hugin07,001,2023-10-25_13h40.59.164,Oddball_task,2022.2.5,60.19838980685015,
standard,soundFiles/1000Hz_-3dBFS_3s_44.1kHz.wav',None,1000,26,1,105,2,,,,,524.4565061999892,525.4397599999793,525.4386661299853,528.4392891000025,None,1,,,,,,,,,levi_25_10_23_hugin07,001,2023-10-25_13h40.59.164,Oddball_task,2022.2.5,60.19838980685015,
target,soundFiles/1200Hz_-3dBFS_3s_44.1kHz.wav',t,2000,26,2,106,3,,,,,528.4551644999883,529.4399757999927,529.4402946299873,,t,1,1.1423940999957267,,,,,,,,levi_25_10_23_hugin07,001,2023-10-25_13h40.59.164,Oddball_task,2022.2.5,60.19838980685015,
standard,soundFiles/1000Hz_-3dBFS_3s_44.1kHz.wav',None,1000,26,3,107,0,,,,,532.4942219999793,533.4397725999879,533.439206329995,,None,1,,,,,,,,,levi_25_10_23_hugin07,001,2023-10-25_13h40.59.164,Oddball_task,2022.2.5,60.19838980685015,
standard,soundFiles/1000Hz_-3dBFS_3s_44.1kHz.wav',None,1000,27,0,108,0,,,,,536.4555994999828,537.4392891000025,537.4391198299767,540.4393061999872,None,1,,,,,,,,,levi_25_10_23_hugin07,001,2023-10-25_13h40.59.164,Oddball_task,2022.2.5,60.19838980685015,
standard,soundFiles/1000Hz_-3dBFS_3s_44.1kHz.wav',None,1000,27,1,109,1,,,,,540.4554747999937,541.4394623999833,541.4384442299837,544.4390213000006,None,1,,542.4396186999802,,,,,,,levi_25_10_23_hugin07,001,2023-10-25_13h40.59.164,Oddball_task,2022.2.5,60.19838980685015,
standard,soundFiles/1000Hz_-3dBFS_3s_44.1kHz.wav',None,1000,27,2,110,2,,,,,544.4561628999945,545.4401422999799,545.4388636299758,548.4407451000006,None,1,,,,,,,,,levi_25_10_23_hugin07,001,2023-10-25_13h40.59.164,Oddball_task,2022.2.5,60.19838980685015,
target,soundFiles/1200Hz_-3dBFS_3s_44.1kHz.wav',t,2000,27,3,111,3,,,,,548.4584120999789,549.4396323999972,549.4389963299967,552.4390315999917,t,1,1.110637300007511,,,,,,,,levi_25_10_23_hugin07,001,2023-10-25_13h40.59.164,Oddball_task,2022.2.5,60.19838980685015,
standard,soundFiles/1000Hz_-3dBFS_3s_44.1kHz.wav',None,1000,28,0,112,0,,,,,552.4554145000002,553.4404554999783,553.4396447299863,,None,1,,,,,,,,,levi_25_10_23_hugin07,001,2023-10-25_13h40.59.164,Oddball_task,2022.2.5,60.19838980685015,
standard,soundFiles/1000Hz_-3dBFS_3s_44.1kHz.wav',None,1000,28,1,113,1,,,,,556.4557424999948,557.4390217000037,557.4384317299758,560.4400389999792,None,1,,,,,,,,,levi_25_10_23_hugin07,001,2023-10-25_13h40.59.164,Oddball_task,2022.2.5,60.19838980685015,
target,soundFiles/1200Hz_-3dBFS_3s_44.1kHz.wav',t,2000,28,2,114,3,,,,,560.4570051000046,561.4387128999806,561.438607030001,564.4392342999927,t,1,1.1285566000151448,,,,,,,,levi_25_10_23_hugin07,001,2023-10-25_13h40.59.164,Oddball_task,2022.2.5,60.19838980685015,
standard,soundFiles/1000Hz_-3dBFS_3s_44.1kHz.wav',None,1000,28,3,115,2,,,,,564.4559789999912,565.4392369999841,565.4391189299989,568.4400817999849,None,1,,,,,,,,,levi_25_10_23_hugin07,001,2023-10-25_13h40.59.164,Oddball_task,2022.2.5,60.19838980685015,
target,soundFiles/1200Hz_-3dBFS_3s_44.1kHz.wav',t,2000,29,0,116,3,,,,,568.4566281999869,569.4405086000043,569.4402125300024,572.4415167999978,t,1,1.0465703000081703,,,,,,,,levi_25_10_23_hugin07,001,2023-10-25_13h40.59.164,Oddball_task,2022.2.5,60.19838980685015,
standard,soundFiles/1000Hz_-3dBFS_3s_44.1kHz.wav',None,1000,29,1,117,2,,,,,572.4730543000042,573.4385092000011,573.4396951299917,576.4417431000038,None,1,,574.4400839000009,,,,,,,levi_25_10_23_hugin07,001,2023-10-25_13h40.59.164,Oddball_task,2022.2.5,60.19838980685015,
standard,soundFiles/1000Hz_-3dBFS_3s_44.1kHz.wav',None,1000,29,2,118,1,,,,,576.4581265999877,577.4392308999959,577.4389318300003,580.4389324999938,None,1,,,,,,,,,levi_25_10_23_hugin07,001,2023-10-25_13h40.59.164,Oddball_task,2022.2.5,60.19838980685015,
standard,soundFiles/1000Hz_-3dBFS_3s_44.1kHz.wav',None,1000,29,3,119,0,,,,,580.4564256999874,581.4393930999795,581.4391736299789,584.4624960999936,None,1,,,,,,,,,levi_25_10_23_hugin07,001,2023-10-25_13h40.59.164,Oddball_task,2022.2.5,60.19838980685015,
standard,soundFiles/1000Hz_-3dBFS_3s_44.1kHz.wav',None,1000,30,0,120,1,,,,,584.5120554000023,585.4390816999949,585.4391757299949,588.4401398999908,None,1,,,,,,,,,levi_25_10_23_hugin07,001,2023-10-25_13h40.59.164,Oddball_task,2022.2.5,60.19838980685015,
target,soundFiles/1200Hz_-3dBFS_3s_44.1kHz.wav',t,2000,30,1,121,3,,,,,588.4560530000017,589.4394162999815,589.4384600299876,592.4394401999889,t,1,0.854861300002085,,,,,,,,levi_25_10_23_hugin07,001,2023-10-25_13h40.59.164,Oddball_task,2022.2.5,60.19838980685015,
standard,soundFiles/1000Hz_-3dBFS_3s_44.1kHz.wav',None,1000,30,2,122,2,,,,,592.4563431999995,593.4397164999973,593.4390902299841,596.4399846000015,None,1,,,,,,,,,levi_25_10_23_hugin07,001,2023-10-25_13h40.59.164,Oddball_task,2022.2.5,60.19838980685015,
standard,soundFiles/1000Hz_-3dBFS_3s_44.1kHz.wav',None,1000,30,3,123,0,,,,,596.4560614999791,597.4394579999789,597.4392720300006,600.4412800999999,None,1,,,,,,,,,levi_25_10_23_hugin07,001,2023-10-25_13h40.59.164,Oddball_task,2022.2.5,60.19838980685015,
target,soundFiles/1200Hz_-3dBFS_3s_44.1kHz.wav',t,2000,31,0,124,3,,,,,600.4572723000019,601.4394775999826,601.4395937299763,604.4397897000017,t,1,0.9433116000145674,,,,,,,,levi_25_10_23_hugin07,001,2023-10-25_13h40.59.164,Oddball_task,2022.2.5,60.19838980685015,
standard,soundFiles/1000Hz_-3dBFS_3s_44.1kHz.wav',None,1000,31,1,125,0,,,,,604.4561797999777,605.4396002999856,605.4396509299753,608.4394200999814,None,1,,606.4397779999999,,,,,,,levi_25_10_23_hugin07,001,2023-10-25_13h40.59.164,Oddball_task,2022.2.5,60.19838980685015,
standard,soundFiles/1000Hz_-3dBFS_3s_44.1kHz.wav',None,1000,31,2,126,2,,,,,608.455976600002,609.4439647999825,609.4439106299891,,None,1,,,,,,,,,levi_25_10_23_hugin07,001,2023-10-25_13h40.59.164,Oddball_task,2022.2.5,60.19838980685015,
standard,soundFiles/1000Hz_-3dBFS_3s_44.1kHz.wav',None,1000,31,3,127,1,,,,,612.4566393999849,613.4660727999872,613.4444046299963,,None,1,,,,,,,,,levi_25_10_23_hugin07,001,2023-10-25_13h40.59.164,Oddball_task,2022.2.5,60.19838980685015,
standard,soundFiles/1000Hz_-3dBFS_3s_44.1kHz.wav',None,1000,32,0,128,0,,,,,616.4568277999933,617.4400322999863,617.4395816300006,620.4436046000046,None,1,,,,,,,,,levi_25_10_23_hugin07,001,2023-10-25_13h40.59.164,Oddball_task,2022.2.5,60.19838980685015,
standard,soundFiles/1000Hz_-3dBFS_3s_44.1kHz.wav',None,1000,32,1,129,2,,,,,620.4781778999895,621.4398336999875,621.4401321300014,624.439996799978,None,1,,,,,,,,,levi_25_10_23_hugin07,001,2023-10-25_13h40.59.164,Oddball_task,2022.2.5,60.19838980685015,
standard,soundFiles/1000Hz_-3dBFS_3s_44.1kHz.wav',None,1000,32,2,130,1,,,,,624.4562228999857,625.4600502999965,625.4444050299993,,None,1,,,,,,,,,levi_25_10_23_hugin07,001,2023-10-25_13h40.59.164,Oddball_task,2022.2.5,60.19838980685015,
target,soundFiles/1200Hz_-3dBFS_3s_44.1kHz.wav',t,2000,32,3,131,3,,,,,628.4572037000034,629.4398679999867,629.4398037300037,632.4402743999963,t,1,0.5988069000013638,,,,,,,,levi_25_10_23_hugin07,001,2023-10-25_13h40.59.164,Oddball_task,2022.2.5,60.19838980685015,
standard,soundFiles/1000Hz_-3dBFS_3s_44.1kHz.wav',None,1000,33,0,132,0,,,,,632.4573591999942,633.439144199976,633.4399092299922,636.4403712999774,None,1,,,,,,,,,levi_25_10_23_hugin07,001,2023-10-25_13h40.59.164,Oddball_task,2022.2.5,60.19838980685015,
standard,soundFiles/1000Hz_-3dBFS_3s_44.1kHz.wav',None,1000,33,1,133,1,,,,,636.457139599981,637.4398903999827,637.4394028299779,640.4414694999869,None,1,,638.4406202999817,,,,,,,levi_25_10_23_hugin07,001,2023-10-25_13h40.59.164,Oddball_task,2022.2.5,60.19838980685015,
standard,soundFiles/1000Hz_-3dBFS_3s_44.1kHz.wav',None,1000,33,2,134,2,,,,,640.4577469999786,641.4401521999971,641.43980192999,644.4408017999958,None,1,,,,,,,,,levi_25_10_23_hugin07,001,2023-10-25_13h40.59.164,Oddball_task,2022.2.5,60.19838980685015,
target,soundFiles/1200Hz_-3dBFS_3s_44.1kHz.wav',t,2000,33,3,135,3,,,,,644.4574051999953,645.4403547999973,645.4397595299873,648.4395687999786,t,1,0.6878223000094295,,,,,,,,levi_25_10_23_hugin07,001,2023-10-25_13h40.59.164,Oddball_task,2022.2.5,60.19838980685015,
standard,soundFiles/1000Hz_-3dBFS_3s_44.1kHz.wav',None,1000,34,0,136,0,,,,,648.4563478999771,649.4406878000009,649.4401978299778,,None,1,,,,,,,,,levi_25_10_23_hugin07,001,2023-10-25_13h40.59.164,Oddball_task,2022.2.5,60.19838980685015,
standard,soundFiles/1000Hz_-3dBFS_3s_44.1kHz.wav',None,1000,34,1,137,2,,,,,652.4563654999947,653.4414964999887,653.4411744299927,,None,1,,,,,,,,,levi_25_10_23_hugin07,001,2023-10-25_13h40.59.164,Oddball_task,2022.2.5,60.19838980685015,
standard,soundFiles/1000Hz_-3dBFS_3s_44.1kHz.wav',None,1000,34,2,138,1,,,,,656.4572736999835,657.4399759999942,657.4401090300001,660.4408620999893,None,1,,,,,,,,,levi_25_10_23_hugin07,001,2023-10-25_13h40.59.164,Oddball_task,2022.2.5,60.19838980685015,
target,soundFiles/1200Hz_-3dBFS_3s_44.1kHz.wav',t,2000,34,3,139,3,,,,,660.4574403000006,661.4396254000021,661.4406899299996,664.4395892999892,t,1,0.7750599999853875,,,,,,,,levi_25_10_23_hugin07,001,2023-10-25_13h40.59.164,Oddball_task,2022.2.5,60.19838980685015,
standard,soundFiles/1000Hz_-3dBFS_3s_44.1kHz.wav',None,1000,35,0,140,2,,,,,664.4571634999884,665.4412763,665.4413294299796,,None,1,,,,,,,,,levi_25_10_23_hugin07,001,2023-10-25_13h40.59.164,Oddball_task,2022.2.5,60.19838980685015,
standard,soundFiles/1000Hz_-3dBFS_3s_44.1kHz.wav',None,1000,35,1,141,1,,,,,668.4564066999883,669.4393662999792,669.4392692299792,672.4400376999984,None,1,,670.4406722999993,,,,,,,levi_25_10_23_hugin07,001,2023-10-25_13h40.59.164,Oddball_task,2022.2.5,60.19838980685015,
standard,soundFiles/1000Hz_-3dBFS_3s_44.1kHz.wav',None,1000,35,2,142,0,,,,,672.4568468999933,673.4412260999961,673.4408927300013,,None,1,,,,,,,,,levi_25_10_23_hugin07,001,2023-10-25_13h40.59.164,Oddball_task,2022.2.5,60.19838980685015,
target,soundFiles/1200Hz_-3dBFS_3s_44.1kHz.wav',t,2000,35,3,143,3,,,,,676.4567428999871,677.4410941999813,677.4408761299914,,t,1,0.8457648000039626,,,,,,,,levi_25_10_23_hugin07,001,2023-10-25_13h40.59.164,Oddball_task,2022.2.5,60.19838980685015,
standard,soundFiles/1000Hz_-3dBFS_3s_44.1kHz.wav',None,1000,36,0,144,1,,,,,680.4563892000006,681.440956699982,681.44064793,,None,1,,,,,,,,,levi_25_10_23_hugin07,001,2023-10-25_13h40.59.164,Oddball_task,2022.2.5,60.19838980685015,
standard,soundFiles/1000Hz_-3dBFS_3s_44.1kHz.wav',None,1000,36,1,145,0,,,,,684.4564875999931,685.4397599999793,685.4392534299753,688.4400164999824,None,1,,,,,,,,,levi_25_10_23_hugin07,001,2023-10-25_13h40.59.164,Oddball_task,2022.2.5,60.19838980685015,
target,soundFiles/1200Hz_-3dBFS_3s_44.1kHz.wav',t,2000,36,2,146,3,,,,,688.4563928999996,689.441027199995,689.4408722299908,692.4403124999953,t,1,0.7744695000001229,,,,,,,,levi_25_10_23_hugin07,001,2023-10-25_13h40.59.164,Oddball_task,2022.2.5,60.19838980685015,
standard,soundFiles/1000Hz_-3dBFS_3s_44.1kHz.wav',None,1000,36,3,147,2,,,,,692.4567932999926,693.4407702999888,693.4406864300021,696.4410404999799,None,1,,,,,,,,,levi_25_10_23_hugin07,001,2023-10-25_13h40.59.164,Oddball_task,2022.2.5,60.19838980685015,
standard,soundFiles/1000Hz_-3dBFS_3s_44.1kHz.wav',None,1000,37,0,148,0,,,,,696.4576558999834,697.4408253000001,697.4398082299798,700.4448314000037,None,1,,,,,,,,,levi_25_10_23_hugin07,001,2023-10-25_13h40.59.164,Oddball_task,2022.2.5,60.19838980685015,
standard,soundFiles/1000Hz_-3dBFS_3s_44.1kHz.wav',None,1000,37,1,149,2,,,,,700.4756305000046,701.4407404999947,701.4402347299969,704.4404713999829,None,1,,702.4397102999792,,,,,,,levi_25_10_23_hugin07,001,2023-10-25_13h40.59.164,Oddball_task,2022.2.5,60.19838980685015,
target,soundFiles/1200Hz_-3dBFS_3s_44.1kHz.wav',t,2000,37,2,150,3,,,,,704.457287199999,705.4401814999874,705.440322529996,708.4401098999952,t,1,0.8547686999954749,,,,,,,,levi_25_10_23_hugin07,001,2023-10-25_13h40.59.164,Oddball_task,2022.2.5,60.19838980685015,
standard,soundFiles/1000Hz_-3dBFS_3s_44.1kHz.wav',None,1000,37,3,151,1,,,,,708.4566425999801,709.4408900999988,709.44081993,712.4401749999961,None,1,,,,,,,,,levi_25_10_23_hugin07,001,2023-10-25_13h40.59.164,Oddball_task,2022.2.5,60.19838980685015,
standard,soundFiles/1000Hz_-3dBFS_3s_44.1kHz.wav',None,1000,38,0,152,0,,,,,712.4567787999986,713.4408926999895,713.440096629993,716.4402437999961,None,1,,,,,,,,,levi_25_10_23_hugin07,001,2023-10-25_13h40.59.164,Oddball_task,2022.2.5,60.19838980685015,
target,soundFiles/1200Hz_-3dBFS_3s_44.1kHz.wav',t,2000,38,1,153,3,,,,,716.4570681999903,717.4413809999824,717.4408492299902,720.4402357999934,t,1,0.9183812999981456,,,,,,,,levi_25_10_23_hugin07,001,2023-10-25_13h40.59.164,Oddball_task,2022.2.5,60.19838980685015,
standard,soundFiles/1000Hz_-3dBFS_3s_44.1kHz.wav',None,1000,38,2,154,1,,,,,720.4571147999959,721.4401799000043,721.4403248299844,724.4409195999906,None,1,,,,,,,,,levi_25_10_23_hugin07,001,2023-10-25_13h40.59.164,Oddball_task,2022.2.5,60.19838980685015,
standard,soundFiles/1000Hz_-3dBFS_3s_44.1kHz.wav',None,1000,38,3,155,2,,,,,724.4583246999828,725.4408199999889,725.4416315299808,728.4407172999927,None,1,,,,,,,,,levi_25_10_23_hugin07,001,2023-10-25_13h40.59.164,Oddball_task,2022.2.5,60.19838980685015,
target,soundFiles/1200Hz_-3dBFS_3s_44.1kHz.wav',t,2000,39,0,156,3,,,,,728.4571429999778,729.4402412999771,729.4399184299749,732.4406845000049,t,1,0.8070633999886923,,,,,,,,levi_25_10_23_hugin07,001,2023-10-25_13h40.59.164,Oddball_task,2022.2.5,60.19838980685015,
standard,soundFiles/1000Hz_-3dBFS_3s_44.1kHz.wav',None,1000,39,1,157,2,,,,,732.4571351999766,733.440480099991,733.4401707299752,736.4402782999969,None,1,,734.4409863000037,,,,,,,levi_25_10_23_hugin07,001,2023-10-25_13h40.59.164,Oddball_task,2022.2.5,60.19838980685015,
standard,soundFiles/1000Hz_-3dBFS_3s_44.1kHz.wav',None,1000,39,2,158,1,,,,,736.4579700999893,737.4411574999976,737.4403361299832,740.4418703999836,None,1,,,,,,,,,levi_25_10_23_hugin07,001,2023-10-25_13h40.59.164,Oddball_task,2022.2.5,60.19838980685015,
standard,soundFiles/1000Hz_-3dBFS_3s_44.1kHz.wav',None,1000,39,3,159,0,,,,,740.4588236999989,741.4405451999919,741.4404145299981,744.4403458999877,None,1,,,,,,,,,levi_25_10_23_hugin07,001,2023-10-25_13h40.59.164,Oddball_task,2022.2.5,60.19838980685015,
target,soundFiles/1200Hz_-3dBFS_3s_44.1kHz.wav',t,2000,40,0,160,3,,,,,744.4569221999845,745.440327999997,745.4410188300011,748.4401715999993,t,1,0.9993105999892578,,,,,,,,levi_25_10_23_hugin07,001,2023-10-25_13h40.59.164,Oddball_task,2022.2.5,60.19838980685015,
standard,soundFiles/1000Hz_-3dBFS_3s_44.1kHz.wav',None,1000,40,1,161,0,,,,,748.4581729999918,749.4404686999915,749.441292829992,752.4406566999969,None,1,,,,,,,,,levi_25_10_23_hugin07,001,2023-10-25_13h40.59.164,Oddball_task,2022.2.5,60.19838980685015,
standard,soundFiles/1000Hz_-3dBFS_3s_44.1kHz.wav',None,1000,40,2,162,1,,,,,752.4572581999819,753.4403989999846,753.440222629992,756.4403669000021,None,1,,,,,,,,,levi_25_10_23_hugin07,001,2023-10-25_13h40.59.164,Oddball_task,2022.2.5,60.19838980685015,
standard,soundFiles/1000Hz_-3dBFS_3s_44.1kHz.wav',None,1000,40,3,163,2,,,,,756.457193499984,757.4412408999924,757.4402967300033,760.4404171999777,None,1,,,,,,,,,levi_25_10_23_hugin07,001,2023-10-25_13h40.59.164,Oddball_task,2022.2.5,60.19838980685015,
standard,soundFiles/1000Hz_-3dBFS_3s_44.1kHz.wav',None,1000,41,0,164,1,,,,,760.4572126999847,761.4405507999763,761.4402923299989,764.4403007999936,None,1,,,,,,,,,levi_25_10_23_hugin07,001,2023-10-25_13h40.59.164,Oddball_task,2022.2.5,60.19838980685015,
target,soundFiles/1200Hz_-3dBFS_3s_44.1kHz.wav',t,2000,41,1,165,3,,,,,764.4572779999871,765.4405284999812,765.4405616299831,768.4409673999762,t,1,0.7113192999968305,766.4407079999801,,,,,,,levi_25_10_23_hugin07,001,2023-10-25_13h40.59.164,Oddball_task,2022.2.5,60.19838980685015,
standard,soundFiles/1000Hz_-3dBFS_3s_44.1kHz.wav',None,1000,41,2,166,0,,,,,768.4574002999871,769.4402528999781,769.4402062299836,772.4406385000038,None,1,,,,,,,,,levi_25_10_23_hugin07,001,2023-10-25_13h40.59.164,Oddball_task,2022.2.5,60.19838980685015,
standard,soundFiles/1000Hz_-3dBFS_3s_44.1kHz.wav',None,1000,41,3,167,2,,,,,772.4573928999889,773.4408233999857,773.4412918299844,776.440904499992,None,1,,,,,,,,,levi_25_10_23_hugin07,001,2023-10-25_13h40.59.164,Oddball_task,2022.2.5,60.19838980685015,
target,soundFiles/1200Hz_-3dBFS_3s_44.1kHz.wav',t,2000,42,0,168,3,,,,,776.4574162999925,777.4410820000048,777.4406909299781,780.4412655999768,t,1,1.0070381999830715,,,,,,,,levi_25_10_23_hugin07,001,2023-10-25_13h40.59.164,Oddball_task,2022.2.5,60.19838980685015,
standard,soundFiles/1000Hz_-3dBFS_3s_44.1kHz.wav',None,1000,42,1,169,0,,,,,780.4572443999932,781.4802322000032,781.462849429989,,None,1,,,,,,,,,levi_25_10_23_hugin07,001,2023-10-25_13h40.59.164,Oddball_task,2022.2.5,60.19838980685015,
standard,soundFiles/1000Hz_-3dBFS_3s_44.1kHz.wav',None,1000,42,2,170,1,,,,,784.4580494999827,785.4410190999915,785.442034729995,788.4406501999765,None,1,,,,,,,,,levi_25_10_23_hugin07,001,2023-10-25_13h40.59.164,Oddball_task,2022.2.5,60.19838980685015,
standard,soundFiles/1000Hz_-3dBFS_3s_44.1kHz.wav',None,1000,42,3,171,2,,,,,788.4572669999907,789.4410785999789,789.4416184299974,792.4409944999788,None,1,,,,,,,,,levi_25_10_23_hugin07,001,2023-10-25_13h40.59.164,Oddball_task,2022.2.5,60.19838980685015,
standard,soundFiles/1000Hz_-3dBFS_3s_44.1kHz.wav',None,1000,43,0,172,1,,,,,792.4570294999867,793.4409293999779,793.4403513299825,796.4404329999816,None,1,,,,,,,,,levi_25_10_23_hugin07,001,2023-10-25_13h40.59.164,Oddball_task,2022.2.5,60.19838980685015,
standard,soundFiles/1000Hz_-3dBFS_3s_44.1kHz.wav',None,1000,43,1,173,0,,,,,796.4581569999864,797.441396499984,797.4412965299911,800.4408039999835,None,1,,798.4411436999799,,,,,,,levi_25_10_23_hugin07,001,2023-10-25_13h40.59.164,Oddball_task,2022.2.5,60.19838980685015,
target,soundFiles/1200Hz_-3dBFS_3s_44.1kHz.wav',t,2000,43,2,174,3,,,,,800.4587305999885,801.4407186000026,801.4408416299906,804.4418317999807,t,1,0.8071445000241511,,,,,,,,levi_25_10_23_hugin07,001,2023-10-25_13h40.59.164,Oddball_task,2022.2.5,60.19838980685015,
standard,soundFiles/1000Hz_-3dBFS_3s_44.1kHz.wav',None,1000,43,3,175,2,,,,,804.4581748999772,805.4414083999873,805.4411366299959,808.4407752999978,None,1,,,,,,,,,levi_25_10_23_hugin07,001,2023-10-25_13h40.59.164,Oddball_task,2022.2.5,60.19838980685015,
target,soundFiles/1200Hz_-3dBFS_3s_44.1kHz.wav',t,2000,44,0,176,3,,,,,808.4577020999859,809.4410762999905,809.4411792300001,812.4405946999905,t,1,0.8628580000076909,,,,,,,,levi_25_10_23_hugin07,001,2023-10-25_13h40.59.164,Oddball_task,2022.2.5,60.19838980685015,
standard,soundFiles/1000Hz_-3dBFS_3s_44.1kHz.wav',None,1000,44,1,177,0,,,,,812.4576664999768,813.4414422999835,813.4410662299837,816.4409569999843,None,1,,,,,,,,,levi_25_10_23_hugin07,001,2023-10-25_13h40.59.164,Oddball_task,2022.2.5,60.19838980685015,
standard,soundFiles/1000Hz_-3dBFS_3s_44.1kHz.wav',None,1000,44,2,178,1,,,,,816.4573497999809,817.4414637000009,817.44040582999,820.4408690999844,None,1,,,,,,,,,levi_25_10_23_hugin07,001,2023-10-25_13h40.59.164,Oddball_task,2022.2.5,60.19838980685015,
standard,soundFiles/1000Hz_-3dBFS_3s_44.1kHz.wav',None,1000,44,3,179,2,,,,,820.4575435000006,821.4413612999779,821.4422223299974,824.4416233999946,None,1,,,,,,,,,levi_25_10_23_hugin07,001,2023-10-25_13h40.59.164,Oddball_task,2022.2.5,60.19838980685015,
standard,soundFiles/1000Hz_-3dBFS_3s_44.1kHz.wav',None,1000,45,0,180,1,,,,,824.4575609999883,825.4411670999834,825.4413912299846,828.4413093999901,None,1,,,,,,,,,levi_25_10_23_hugin07,001,2023-10-25_13h40.59.164,Oddball_task,2022.2.5,60.19838980685015,
target,soundFiles/1200Hz_-3dBFS_3s_44.1kHz.wav',t,2000,45,1,181,3,,,,,828.457404899993,829.4415700999962,829.4405917299795,832.4409313999931,t,1,0.8867387999780476,830.4412372999941,,,,,,,levi_25_10_23_hugin07,001,2023-10-25_13h40.59.164,Oddball_task,2022.2.5,60.19838980685015,
standard,soundFiles/1000Hz_-3dBFS_3s_44.1kHz.wav',None,1000,45,2,182,2,,,,,832.458234699996,833.4410721999884,833.440795029985,836.441233199992,None,1,,,,,,,,,levi_25_10_23_hugin07,001,2023-10-25_13h40.59.164,Oddball_task,2022.2.5,60.19838980685015,
standard,soundFiles/1000Hz_-3dBFS_3s_44.1kHz.wav',None,1000,45,3,183,0,,,,,836.4575585999992,837.4411663999781,837.4411425299826,840.4419527999999,None,1,,,,,,,,,levi_25_10_23_hugin07,001,2023-10-25_13h40.59.164,Oddball_task,2022.2.5,60.19838980685015,
standard,soundFiles/1000Hz_-3dBFS_3s_44.1kHz.wav',None,1000,46,0,184,2,,,,,840.4584317999834,841.4419194999791,841.4410515299882,844.4416236999969,None,1,,,,,,,,,levi_25_10_23_hugin07,001,2023-10-25_13h40.59.164,Oddball_task,2022.2.5,60.19838980685015,
target,soundFiles/1200Hz_-3dBFS_3s_44.1kHz.wav',t,2000,46,1,185,3,,,,,844.4582586000033,845.4425929999852,845.4414164300018,848.4419137999939,t,1,0.8773962999985088,,,,,,,,levi_25_10_23_hugin07,001,2023-10-25_13h40.59.164,Oddball_task,2022.2.5,60.19838980685015,
standard,soundFiles/1000Hz_-3dBFS_3s_44.1kHz.wav',None,1000,46,2,186,0,,,,,848.4593997999909,849.4408498999837,849.4409789299883,852.4427200999926,None,1,,,,,,,,,levi_25_10_23_hugin07,001,2023-10-25_13h40.59.164,Oddball_task,2022.2.5,60.19838980685015,
standard,soundFiles/1000Hz_-3dBFS_3s_44.1kHz.wav',None,1000,46,3,187,1,,,,,852.4594899999793,853.4414762999804,853.4412380299822,856.4413478999923,None,1,,,,,,,,,levi_25_10_23_hugin07,001,2023-10-25_13h40.59.164,Oddball_task,2022.2.5,60.19838980685015,
standard,soundFiles/1000Hz_-3dBFS_3s_44.1kHz.wav',None,1000,47,0,188,2,,,,,856.4589018999832,857.4422055000032,857.4423530300031,,None,1,,,,,,,,,levi_25_10_23_hugin07,001,2023-10-25_13h40.59.164,Oddball_task,2022.2.5,60.19838980685015,
target,soundFiles/1200Hz_-3dBFS_3s_44.1kHz.wav',t,2000,47,1,189,3,,,,,860.4591269999801,861.4417396999779,861.4421030299912,864.441439999995,t,1,0.8558655999950133,,,,,,,,levi_25_10_23_hugin07,001,2023-10-25_13h40.59.164,Oddball_task,2022.2.5,60.19838980685015,
standard,soundFiles/1000Hz_-3dBFS_3s_44.1kHz.wav',None,1000,47,2,190,1,,,,,864.4579443999974,865.4418514999852,865.4416883299767,868.4413274999824,None,1,,,,,,,,,levi_25_10_23_hugin07,001,2023-10-25_13h40.59.164,Oddball_task,2022.2.5,60.19838980685015,
standard,soundFiles/1000Hz_-3dBFS_3s_44.1kHz.wav',None,1000,47,3,191,0,,,,,868.4579300000041,869.4444332999992,869.4443126299942,,None,1,,,,,,,,,levi_25_10_23_hugin07,001,2023-10-25_13h40.59.164,Oddball_task,2022.2.5,60.19838980685015,
standard,soundFiles/1000Hz_-3dBFS_3s_44.1kHz.wav',None,1000,48,0,192,1,,,,,872.4581621999969,873.4412286999868,873.4410916300025,876.4412672999897,None,1,,,,,,,,,levi_25_10_23_hugin07,001,2023-10-25_13h40.59.164,Oddball_task,2022.2.5,60.19838980685015,
target,soundFiles/1200Hz_-3dBFS_3s_44.1kHz.wav',t,2000,48,1,193,3,,,,,876.4580824000004,877.4415533999854,877.4409860299842,880.4416704000032,t,1,0.7910847000021022,,,,,,,,levi_25_10_23_hugin07,001,2023-10-25_13h40.59.164,Oddball_task,2022.2.5,60.19838980685015,
standard,soundFiles/1000Hz_-3dBFS_3s_44.1kHz.wav',None,1000,48,2,194,2,,,,,880.4597181999998,881.4416511000018,881.4418334299756,884.4412346000026,None,1,,,,,,,,,levi_25_10_23_hugin07,001,2023-10-25_13h40.59.164,Oddball_task,2022.2.5,60.19838980685015,
standard,soundFiles/1000Hz_-3dBFS_3s_44.1kHz.wav',None,1000,48,3,195,0,,,,,884.4588631999795,885.4414333000022,885.4417950300034,888.441467800003,None,1,,,,,,,,,levi_25_10_23_hugin07,001,2023-10-25_13h40.59.164,Oddball_task,2022.2.5,60.19838980685015,
standard,soundFiles/1000Hz_-3dBFS_3s_44.1kHz.wav',None,1000,49,0,196,2,,,,,888.4584168999863,889.4425839000032,889.4424325299973,892.4421593000006,None,1,,,,,,,,,levi_25_10_23_hugin07,001,2023-10-25_13h40.59.164,Oddball_task,2022.2.5,60.19838980685015,
standard,soundFiles/1000Hz_-3dBFS_3s_44.1kHz.wav',None,1000,49,1,197,0,,,,,892.458332499984,893.4431121999805,893.4421677299891,896.4639395999839,None,1,,894.4421980999759,,,,,,,levi_25_10_23_hugin07,001,2023-10-25_13h40.59.164,Oddball_task,2022.2.5,60.19838980685015,
standard,soundFiles/1000Hz_-3dBFS_3s_44.1kHz.wav',None,1000,49,2,198,1,,,,,896.4967547999986,897.4418049999804,897.4417119299818,900.4423077999963,None,1,,,,,,,,,levi_25_10_23_hugin07,001,2023-10-25_13h40.59.164,Oddball_task,2022.2.5,60.19838980685015,
target,soundFiles/1200Hz_-3dBFS_3s_44.1kHz.wav',t,2000,49,3,199,3,,,,,900.4585771999846,901.4411621000036,901.4409329299873,904.4421588999976,t,1,0.7120196000032593,,,,,,,,levi_25_10_23_hugin07,001,2023-10-25_13h40.59.164,Oddball_task,2022.2.5,60.19838980685015,
standard,soundFiles/1000Hz_-3dBFS_3s_44.1kHz.wav',None,1000,50,0,200,1,,,,,904.4586945999763,905.4419343000045,905.4419739299977,908.4419495000038,None,1,,,,,,,,,levi_25_10_23_hugin07,001,2023-10-25_13h40.59.164,Oddball_task,2022.2.5,60.19838980685015,
target,soundFiles/1200Hz_-3dBFS_3s_44.1kHz.wav',t,2000,50,1,201,3,,,,,908.4584581999807,909.4453801999916,909.4464677299896,,t,1,0.9154643999936525,,,,,,,,levi_25_10_23_hugin07,001,2023-10-25_13h40.59.164,Oddball_task,2022.2.5,60.19838980685015,
standard,soundFiles/1000Hz_-3dBFS_3s_44.1kHz.wav',None,1000,50,2,202,2,,,,,912.4586013999942,913.4420080999844,913.4414829299843,916.4426368999993,None,1,,,,,,,,,levi_25_10_23_hugin07,001,2023-10-25_13h40.59.164,Oddball_task,2022.2.5,60.19838980685015,
standard,soundFiles/1000Hz_-3dBFS_3s_44.1kHz.wav',None,1000,50,3,203,0,,,,,916.4594804999942,917.4436992999981,917.4433409299876,920.4676416000002,None,1,,,,,,,,,levi_25_10_23_hugin07,001,2023-10-25_13h40.59.164,Oddball_task,2022.2.5,60.19838980685015,
standard,soundFiles/1000Hz_-3dBFS_3s_44.1kHz.wav',None,1000,51,0,204,0,,,,,920.5130667999911,921.4416610999906,921.441677429981,924.4417390000017,None,1,,,,,,,,,levi_25_10_23_hugin07,001,2023-10-25_13h40.59.164,Oddball_task,2022.2.5,60.19838980685015,
standard,soundFiles/1000Hz_-3dBFS_3s_44.1kHz.wav',None,1000,51,1,205,2,,,,,924.4578078999766,925.4413090999878,925.4417312299832,928.4423165000044,None,1,,,,,,,,,levi_25_10_23_hugin07,001,2023-10-25_13h40.59.164,Oddball_task,2022.2.5,60.19838980685015,
target,soundFiles/1200Hz_-3dBFS_3s_44.1kHz.wav',t,2000,51,2,206,3,,,,,928.4587853999983,929.441830900003,929.4418765299837,932.4643115999934,t,1,0.8953447999956552,,,,,,,,levi_25_10_23_hugin07,001,2023-10-25_13h40.59.164,Oddball_task,2022.2.5,60.19838980685015,
standard,soundFiles/1000Hz_-3dBFS_3s_44.1kHz.wav',None,1000,51,3,207,1,,,,,932.5145651999919,933.4417969999777,933.4417815299879,936.4448739999789,None,1,,,,,,,,,levi_25_10_23_hugin07,001,2023-10-25_13h40.59.164,Oddball_task,2022.2.5,60.19838980685015,
target,soundFiles/1200Hz_-3dBFS_3s_44.1kHz.wav',t,2000,52,0,208,3,,,,,936.4607648999954,937.4416684999887,937.441888429987,940.4423662000045,t,1,1.1193932000023779,,,,,,,,levi_25_10_23_hugin07,001,2023-10-25_13h40.59.164,Oddball_task,2022.2.5,60.19838980685015,
standard,soundFiles/1000Hz_-3dBFS_3s_44.1kHz.wav',None,1000,52,1,209,2,,,,,940.459245999984,941.4417456999945,941.4419917299878,944.4417810000014,None,1,,,,,,,,,levi_25_10_23_hugin07,001,2023-10-25_13h40.59.164,Oddball_task,2022.2.5,60.19838980685015,
standard,soundFiles/1000Hz_-3dBFS_3s_44.1kHz.wav',None,1000,52,2,210,1,,,,,944.4584598999936,945.4422339999874,945.442039330001,948.4636306999892,None,1,,,,,,,,,levi_25_10_23_hugin07,001,2023-10-25_13h40.59.164,Oddball_task,2022.2.5,60.19838980685015,
standard,soundFiles/1000Hz_-3dBFS_3s_44.1kHz.wav',None,1000,52,3,211,0,,,,,948.5150387999893,949.442038499983,949.4418380299816,952.4421720999817,None,1,,,,,,,,,levi_25_10_23_hugin07,001,2023-10-25_13h40.59.164,Oddball_task,2022.2.5,60.19838980685015,
target,soundFiles/1200Hz_-3dBFS_3s_44.1kHz.wav',t,2000,53,0,212,3,,,,,952.4589966999774,953.4655734999978,953.4496333299961,,t,1,0.8312192000157665,,,,,,,,levi_25_10_23_hugin07,001,2023-10-25_13h40.59.164,Oddball_task,2022.2.5,60.19838980685015,
standard,soundFiles/1000Hz_-3dBFS_3s_44.1kHz.wav',None,1000,53,1,213,2,,,,,956.4596377999987,957.4427396999963,957.4424819299951,960.4426851999888,None,1,,958.4419813999848,,,,,,,levi_25_10_23_hugin07,001,2023-10-25_13h40.59.164,Oddball_task,2022.2.5,60.19838980685015,
standard,soundFiles/1000Hz_-3dBFS_3s_44.1kHz.wav',None,1000,53,2,214,0,,,,,960.4593040999898,961.4426742999931,961.4427354299754,964.4427653999883,None,1,,,,,,,,,levi_25_10_23_hugin07,001,2023-10-25_13h40.59.164,Oddball_task,2022.2.5,60.19838980685015,
standard,soundFiles/1000Hz_-3dBFS_3s_44.1kHz.wav',None,1000,53,3,215,1,,,,,964.4595102999883,965.4424510999816,965.4427285299811,968.4430943999905,None,1,,,,,,,,,levi_25_10_23_hugin07,001,2023-10-25_13h40.59.164,Oddball_task,2022.2.5,60.19838980685015,
standard,soundFiles/1000Hz_-3dBFS_3s_44.1kHz.wav',None,1000,54,0,216,1,,,,,968.46014499999,969.4419339000015,969.4424062300008,972.441878099984,None,1,,,,,,,,,levi_25_10_23_hugin07,001,2023-10-25_13h40.59.164,Oddball_task,2022.2.5,60.19838980685015,
target,soundFiles/1200Hz_-3dBFS_3s_44.1kHz.wav',t,2000,54,1,217,3,,,,,972.4586759999802,973.4422550000018,973.44228632999,976.4428429999971,t,1,0.8235884000023361,,,,,,,,levi_25_10_23_hugin07,001,2023-10-25_13h40.59.164,Oddball_task,2022.2.5,60.19838980685015,
standard,soundFiles/1000Hz_-3dBFS_3s_44.1kHz.wav',None,1000,54,2,218,2,,,,,976.4586922999879,977.4428637999808,977.4418897299969,980.4420112999796,None,1,,,,,,,,,levi_25_10_23_hugin07,001,2023-10-25_13h40.59.164,Oddball_task,2022.2.5,60.19838980685015,
standard,soundFiles/1000Hz_-3dBFS_3s_44.1kHz.wav',None,1000,54,3,219,0,,,,,980.4587968999986,981.4418065999926,981.4417821299925,984.4420363999961,None,1,,,,,,,,,levi_25_10_23_hugin07,001,2023-10-25_13h40.59.164,Oddball_task,2022.2.5,60.19838980685015,
standard,soundFiles/1000Hz_-3dBFS_3s_44.1kHz.wav',None,1000,55,0,220,1,,,,,984.4585886999848,985.442266500002,985.4416341300006,988.4431853999849,None,1,,,,,,,,,levi_25_10_23_hugin07,001,2023-10-25_13h40.59.164,Oddball_task,2022.2.5,60.19838980685015,
target,soundFiles/1200Hz_-3dBFS_3s_44.1kHz.wav',t,2000,55,1,221,3,,,,,988.4602528999967,989.4429090999765,989.4430024300003,992.4432386999833,t,1,0.9662074000225402,,,,,,,,levi_25_10_23_hugin07,001,2023-10-25_13h40.59.164,Oddball_task,2022.2.5,60.19838980685015,
standard,soundFiles/1000Hz_-3dBFS_3s_44.1kHz.wav',None,1000,55,2,222,0,,,,,992.4594385999953,993.4422158999951,993.4424492299789,996.4456189999764,None,1,,,,,,,,,levi_25_10_23_hugin07,001,2023-10-25_13h40.59.164,Oddball_task,2022.2.5,60.19838980685015,
standard,soundFiles/1000Hz_-3dBFS_3s_44.1kHz.wav',None,1000,55,3,223,2,,,,,996.4773592999845,997.4423416999925,997.4418678299756,1000.4426921999839,None,1,,,,,,,,,levi_25_10_23_hugin07,001,2023-10-25_13h40.59.164,Oddball_task,2022.2.5,60.19838980685015,
standard,soundFiles/1000Hz_-3dBFS_3s_44.1kHz.wav',None,1000,56,0,224,2,,,,,1000.4590746999893,1001.4433696999913,1001.4432936299767,1004.4421295999782,None,1,,,,,,,,,levi_25_10_23_hugin07,001,2023-10-25_13h40.59.164,Oddball_task,2022.2.5,60.19838980685015,
standard,soundFiles/1000Hz_-3dBFS_3s_44.1kHz.wav',None,1000,56,1,225,0,,,,,1004.4587363000028,1005.4423315000022,1005.4430986299761,1008.4422910999856,None,1,,,,,,,,,levi_25_10_23_hugin07,001,2023-10-25_13h40.59.164,Oddball_task,2022.2.5,60.19838980685015,
standard,soundFiles/1000Hz_-3dBFS_3s_44.1kHz.wav',None,1000,56,2,226,1,,,,,1008.459036699991,1009.4421081999899,1009.4428061299899,1012.443233500002,None,1,,,,,,,,,levi_25_10_23_hugin07,001,2023-10-25_13h40.59.164,Oddball_task,2022.2.5,60.19838980685015,
target,soundFiles/1200Hz_-3dBFS_3s_44.1kHz.wav',t,2000,56,3,227,3,,,,,1012.4595114999975,1013.4437239999825,1013.4429245299892,1016.4437104999961,t,1,0.7661373000009917,,,,,,,,levi_25_10_23_hugin07,001,2023-10-25_13h40.59.164,Oddball_task,2022.2.5,60.19838980685015,
standard,soundFiles/1000Hz_-3dBFS_3s_44.1kHz.wav',None,1000,57,0,228,0,,,,,1016.4596193000034,1017.4421252000029,1017.4423664299887,1020.4422567999864,None,1,,,,,,,,,levi_25_10_23_hugin07,001,2023-10-25_13h40.59.164,Oddball_task,2022.2.5,60.19838980685015,
target,soundFiles/1200Hz_-3dBFS_3s_44.1kHz.wav',t,2000,57,1,229,3,,,,,1020.4592897999974,1021.4429625999765,1021.4434372299933,1024.4430561999907,t,1,1.1743118000158574,,,,,,,,levi_25_10_23_hugin07,001,2023-10-25_13h40.59.164,Oddball_task,2022.2.5,60.19838980685015,
standard,soundFiles/1000Hz_-3dBFS_3s_44.1kHz.wav',None,1000,57,2,230,1,,,,,1024.4603070000012,1025.4431565999985,1025.4430217300019,1028.4429423999973,None,1,,,,,,,,,levi_25_10_23_hugin07,001,2023-10-25_13h40.59.164,Oddball_task,2022.2.5,60.19838980685015,
standard,soundFiles/1000Hz_-3dBFS_3s_44.1kHz.wav',None,1000,57,3,231,2,,,,,1028.4594362999778,1029.4421028999786,1029.4423015299894,1032.442333199986,None,1,,,,,,,,,levi_25_10_23_hugin07,001,2023-10-25_13h40.59.164,Oddball_task,2022.2.5,60.19838980685015,
standard,soundFiles/1000Hz_-3dBFS_3s_44.1kHz.wav',None,1000,58,0,232,1,,,,,1032.4593548999983,1033.442801999976,1033.4424311299867,1036.4426932999922,None,1,,,,,,,,,levi_25_10_23_hugin07,001,2023-10-25_13h40.59.164,Oddball_task,2022.2.5,60.19838980685015,
standard,soundFiles/1000Hz_-3dBFS_3s_44.1kHz.wav',None,1000,58,1,233,0,,,,,1036.4597840999777,1037.4423220999888,1037.4432514299756,1040.4426592999953,None,1,,,,,,,,,levi_25_10_23_hugin07,001,2023-10-25_13h40.59.164,Oddball_task,2022.2.5,60.19838980685015,
standard,soundFiles/1000Hz_-3dBFS_3s_44.1kHz.wav',None,1000,58,2,234,2,,,,,1040.4596172999882,1041.4419053999882,1041.4420850299998,1044.442738999991,None,1,,,,,,,,,levi_25_10_23_hugin07,001,2023-10-25_13h40.59.164,Oddball_task,2022.2.5,60.19838980685015,
target,soundFiles/1200Hz_-3dBFS_3s_44.1kHz.wav',t,2000,58,3,235,3,,,,,1044.459488099994,1045.4429434000049,1045.4428585299815,1048.4444025999983,t,1,0.69496649998473,,,,,,,,levi_25_10_23_hugin07,001,2023-10-25_13h40.59.164,Oddball_task,2022.2.5,60.19838980685015,
target,soundFiles/1200Hz_-3dBFS_3s_44.1kHz.wav',t,2000,59,0,236,3,,,,,1048.4605398999993,1049.4429017999792,1049.442918029998,1052.4444157999824,t,1,0.9840029000188224,1050.4428121999954,,,,,,,levi_25_10_23_hugin07,001,2023-10-25_13h40.59.164,Oddball_task,2022.2.5,60.19838980685015,
standard,soundFiles/1000Hz_-3dBFS_3s_44.1kHz.wav',None,1000,59,1,237,2,,,,,1052.4607704999798,1053.4443020999897,1053.443615629984,,None,1,,1054.44283059999,,,,,,,levi_25_10_23_hugin07,001,2023-10-25_13h40.59.164,Oddball_task,2022.2.5,60.19838980685015,
standard,soundFiles/1000Hz_-3dBFS_3s_44.1kHz.wav',None,1000,59,2,238,0,,,,,1056.4595501000003,1057.4426006999856,1057.442415729986,1060.4439217000036,None,1,,,,,,,,,levi_25_10_23_hugin07,001,2023-10-25_13h40.59.164,Oddball_task,2022.2.5,60.19838980685015,
standard,soundFiles/1000Hz_-3dBFS_3s_44.1kHz.wav',None,1000,59,3,239,1,,,,,1060.4613132999802,1061.4428032999858,1061.4429270299793,1064.4430707999854,None,1,,,,,,,,,levi_25_10_23_hugin07,001,2023-10-25_13h40.59.164,Oddball_task,2022.2.5,60.19838980685015,
,,,,,,,,,,,,,,,,,,,,,1064.4595958999998,1067.4433116999862,1067.4599386999907,e,9.046895500010578,levi_25_10_23_hugin07,001,2023-10-25_13h40.59.164,Oddball_task,2022.2.5,60.19838980685015,
