trial,file,corrAns,tone,trials_2.thisRepN,trials_2.thisTrialN,trials_2.thisN,trials_2.thisIndex,instructions.started,key_resp_1.started,key_resp_1.keys,key_resp_1.rt,fixation.started,response.started,sound_1.started,response.stopped,fixation.stopped,FixDur,response.keys,response.corr,sound_1.stopped,participant,session,date,expName,psychopyVersion,frameRate,
,,,,,,,,33.98595469997963,33.98595469997963,space,38.27242719999049,,,,,,,,,,michael,001,2023-10-31_13h13.41.688,Oddball_task,2022.2.5,59.93044472646077,
standard,soundFiles/1000Hz_-3dBFS_3s_44.1kHz.wav',None,1000,0,0,0,2,,,,,72.31945749995066,73.27215649996651,73.27488616995397,75.27039799996419,76.95347859995672,4.634267153278537,None,1,,michael,001,2023-10-31_13h13.41.688,Oddball_task,2022.2.5,59.93044472646077,
standard,soundFiles/1000Hz_-3dBFS_3s_44.1kHz.wav',None,1000,0,1,1,0,,,,,76.95347859995672,77.95351659995504,77.95349816997187,79.95358459994895,81.22056589997374,4.255074234836256,None,1,,michael,001,2023-10-31_13h13.41.688,Oddball_task,2022.2.5,59.93044472646077,
standard,soundFiles/1000Hz_-3dBFS_3s_44.1kHz.wav',None,1000,0,2,2,1,,,,,81.22056589997374,82.22211279999465,82.22158606998273,84.27926559996558,84.17407139996067,2.936907989122449,None,1,,michael,001,2023-10-31_13h13.41.688,Oddball_task,2022.2.5,59.93044472646077,
target,soundFiles/1200Hz_-3dBFS_3s_44.1kHz.wav',t,2000,0,3,3,3,,,,,84.27926559996558,85.23836899996968,85.23622826994979,87.25222429999849,89.53769859997556,5.255155631189359,None,0,,michael,001,2023-10-31_13h13.41.688,Oddball_task,2022.2.5,59.93044472646077,
standard,soundFiles/1000Hz_-3dBFS_3s_44.1kHz.wav',None,1000,1,0,4,1,,,,,89.53769859997556,90.53704849997303,90.53702826997615,92.5534851999837,92.08725979999872,2.5363795485854834,None,1,,michael,001,2023-10-31_13h13.41.688,Oddball_task,2022.2.5,59.93044472646077,
standard,soundFiles/1000Hz_-3dBFS_3s_44.1kHz.wav',None,1000,1,1,5,0,,,,,92.5534851999837,93.55230199999642,93.55164856995107,95.55312189995311,94.75196259998484,2.1963673328113917,None,1,,michael,001,2023-10-31_13h13.41.688,Oddball_task,2022.2.5,59.93044472646077,
target,soundFiles/1200Hz_-3dBFS_3s_44.1kHz.wav',t,2000,1,2,6,3,,,,,95.55312189995311,96.55329329997767,96.55310646999278,98.55486029997701,97.67017989995657,2.101437530582201,None,0,,michael,001,2023-10-31_13h13.41.688,Oddball_task,2022.2.5,59.93044472646077,
standard,soundFiles/1000Hz_-3dBFS_3s_44.1kHz.wav',None,1000,1,3,7,2,,,,,98.55486029997701,99.55465199996252,99.55413696998149,101.56951289996505,101.63614759995835,3.0765632244652963,None,1,,michael,001,2023-10-31_13h13.41.688,Oddball_task,2022.2.5,59.93044472646077,
standard,soundFiles/1000Hz_-3dBFS_3s_44.1kHz.wav',None,1000,2,0,8,0,,,,,101.63614759995835,102.63607680000132,102.63672907000291,104.63643559999764,105.8358140999917,4.184820244624575,None,1,,michael,001,2023-10-31_13h13.41.688,Oddball_task,2022.2.5,59.93044472646077,
target,soundFiles/1200Hz_-3dBFS_3s_44.1kHz.wav',t,2000,2,1,9,3,,,,,105.8358140999917,106.8555297999992,106.83846166999429,108.86930959997699,109.71989710000344,3.8822566204805073,None,0,,michael,001,2023-10-31_13h13.41.688,Oddball_task,2022.2.5,59.93044472646077,
standard,soundFiles/1000Hz_-3dBFS_3s_44.1kHz.wav',None,1000,2,2,10,1,,,,,109.71989710000344,110.71874449995812,110.71836416995502,112.73466099996585,113.65347319998546,3.9314066298861,None,1,,michael,001,2023-10-31_13h13.41.688,Oddball_task,2022.2.5,59.93044472646077,
standard,soundFiles/1000Hz_-3dBFS_3s_44.1kHz.wav',None,1000,2,3,11,2,,,,,113.65347319998546,114.6524669000064,114.65316016997095,116.65266449999763,115.73609550000401,2.0829481145963493,None,1,,michael,001,2023-10-31_13h13.41.688,Oddball_task,2022.2.5,59.93044472646077,
standard,soundFiles/1000Hz_-3dBFS_3s_44.1kHz.wav',None,1000,3,0,12,2,,,,,116.65266449999763,117.65202209999552,117.6514609699545,119.65176689997315,120.70105410000542,4.046933588622638,None,1,,michael,001,2023-10-31_13h13.41.688,Oddball_task,2022.2.5,59.93044472646077,
standard,soundFiles/1000Hz_-3dBFS_3s_44.1kHz.wav',None,1000,3,1,13,0,,,,,120.70105410000542,121.70241779997014,121.70179806994857,123.7020209999755,126.41797839995706,5.704038343636636,None,1,,michael,001,2023-10-31_13h13.41.688,Oddball_task,2022.2.5,59.93044472646077,
target,soundFiles/1200Hz_-3dBFS_3s_44.1kHz.wav',t,2000,3,2,14,3,,,,,126.41797839995706,127.41792619996704,127.41778606998851,129.4175319999922,131.85136589995818,5.431252969907323,None,0,,michael,001,2023-10-31_13h13.41.688,Oddball_task,2022.2.5,59.93044472646077,
standard,soundFiles/1000Hz_-3dBFS_3s_44.1kHz.wav',None,1000,3,3,15,1,,,,,131.85136589995818,132.8511407999904,132.8507021699508,134.85095339996042,136.2686194999842,4.416642336877318,None,1,,michael,001,2023-10-31_13h13.41.688,Oddball_task,2022.2.5,59.93044472646077,
standard,soundFiles/1000Hz_-3dBFS_3s_44.1kHz.wav',None,1000,4,0,16,2,,,,,136.2686194999842,137.26823879999574,137.2680727699946,139.28482060000533,139.5175946999807,3.238613154022148,None,1,138.26755519997096,michael,001,2023-10-31_13h13.41.688,Oddball_task,2022.2.5,59.93044472646077,
standard,soundFiles/1000Hz_-3dBFS_3s_44.1kHz.wav',None,1000,4,1,17,1,,,,,139.5175946999807,140.51754899998195,140.5175131699827,142.55425220000325,143.78362699999707,4.262533335088113,None,1,,michael,001,2023-10-31_13h13.41.688,Oddball_task,2022.2.5,59.93044472646077,
target,soundFiles/1200Hz_-3dBFS_3s_44.1kHz.wav',t,2000,4,2,18,3,,,,,143.78362699999707,144.78273139998782,144.78275616998434,146.78546599997208,148.93275899998844,5.146277434879286,None,0,,michael,001,2023-10-31_13h13.41.688,Oddball_task,2022.2.5,59.93044472646077,
standard,soundFiles/1000Hz_-3dBFS_3s_44.1kHz.wav',None,1000,4,3,19,0,,,,,148.93275899998844,149.93332859996008,149.93303786999894,151.93326769996202,152.91502459999174,3.976466746561315,None,1,,michael,001,2023-10-31_13h13.41.688,Oddball_task,2022.2.5,59.93044472646077,
standard,soundFiles/1000Hz_-3dBFS_3s_44.1kHz.wav',None,1000,5,0,20,0,,,,,152.91502459999174,153.92050649999874,153.91882436997838,155.9720212999964,155.63341849995777,2.7089822142675755,None,1,,michael,001,2023-10-31_13h13.41.688,Oddball_task,2022.2.5,59.93044472646077,
target,soundFiles/1200Hz_-3dBFS_3s_44.1kHz.wav',t,2000,5,1,21,3,,,,,155.9720212999964,156.93370900000446,156.9332265699806,158.93348369997693,161.53461839997908,5.535671922335413,None,0,,michael,001,2023-10-31_13h13.41.688,Oddball_task,2022.2.5,59.93044472646077,
standard,soundFiles/1000Hz_-3dBFS_3s_44.1kHz.wav',None,1000,5,2,22,2,,,,,161.53461839997908,162.5159356999793,162.51569776995456,164.5158337999601,166.0989280999638,4.562211797939547,None,1,,michael,001,2023-10-31_13h13.41.688,Oddball_task,2022.2.5,59.93044472646077,
standard,soundFiles/1000Hz_-3dBFS_3s_44.1kHz.wav',None,1000,5,3,23,1,,,,,166.0989280999638,167.09901700000046,167.0991702699859,169.1010716999881,168.8164460999542,2.7109405958041064,None,1,,michael,001,2023-10-31_13h13.41.688,Oddball_task,2022.2.5,59.93044472646077,
standard,soundFiles/1000Hz_-3dBFS_3s_44.1kHz.wav',None,1000,6,0,24,1,,,,,169.1010716999881,170.0995217000018,170.09941026995074,172.11537959997077,173.98300799995195,4.874341186698208,None,1,,michael,001,2023-10-31_13h13.41.688,Oddball_task,2022.2.5,59.93044472646077,
target,soundFiles/1200Hz_-3dBFS_3s_44.1kHz.wav',t,2000,6,1,25,3,,,,,173.98300799995195,174.98195689998101,174.98155856995726,176.9820611999603,177.76534649997484,3.7720019127587543,None,0,,michael,001,2023-10-31_13h13.41.688,Oddball_task,2022.2.5,59.93044472646077,
standard,soundFiles/1000Hz_-3dBFS_3s_44.1kHz.wav',None,1000,6,2,26,0,,,,,177.76534649997484,178.7661051999894,178.76543856995994,180.7844863999635,183.71639389998745,5.9445641672285925,None,1,,michael,001,2023-10-31_13h13.41.688,Oddball_task,2022.2.5,59.93044472646077,
standard,soundFiles/1000Hz_-3dBFS_3s_44.1kHz.wav',None,1000,6,3,27,2,,,,,183.71639389998745,184.71510489995126,184.7148310700024,186.7146206999896,187.44557579996763,3.7161972885829178,None,1,,michael,001,2023-10-31_13h13.41.688,Oddball_task,2022.2.5,59.93044472646077,
standard,soundFiles/1000Hz_-3dBFS_3s_44.1kHz.wav',None,1000,7,0,28,2,,,,,187.44557579996763,188.44702869997127,188.44741586999152,190.45048379997024,189.9812849999871,2.5256642091871875,None,1,,michael,001,2023-10-31_13h13.41.688,Oddball_task,2022.2.5,59.93044472646077,
standard,soundFiles/1000Hz_-3dBFS_3s_44.1kHz.wav',None,1000,7,1,29,1,,,,,190.45048379997024,191.4478945999872,191.4479004699562,193.44827860000078,192.89807439997094,2.4471847428279405,None,1,,michael,001,2023-10-31_13h13.41.688,Oddball_task,2022.2.5,59.93044472646077,
target,soundFiles/1200Hz_-3dBFS_3s_44.1kHz.wav',t,2000,7,2,30,3,,,,,193.44827860000078,194.44821010000305,194.4472536699788,196.44793429999845,197.04802859999472,3.597583400906269,None,0,,michael,001,2023-10-31_13h13.41.688,Oddball_task,2022.2.5,59.93044472646077,
standard,soundFiles/1000Hz_-3dBFS_3s_44.1kHz.wav',None,1000,7,3,31,0,,,,,197.04802859999472,198.04824360000202,198.04800606998032,200.04759569995804,201.2149624999729,4.135547099562938,None,1,,michael,001,2023-10-31_13h13.41.688,Oddball_task,2022.2.5,59.93044472646077,
standard,soundFiles/1000Hz_-3dBFS_3s_44.1kHz.wav',None,1000,8,0,32,1,,,,,201.2149624999729,202.1977012999705,202.19757896995287,204.21362579998095,205.28491419996135,4.054362691779778,None,1,,michael,001,2023-10-31_13h13.41.688,Oddball_task,2022.2.5,59.93044472646077,
target,soundFiles/1200Hz_-3dBFS_3s_44.1kHz.wav',t,2000,8,1,33,3,,,,,205.28491419996135,206.2857626999612,206.2810848699475,208.29761619999772,209.6150964999688,4.3167866567849735,None,0,,michael,001,2023-10-31_13h13.41.688,Oddball_task,2022.2.5,59.93044472646077,
standard,soundFiles/1000Hz_-3dBFS_3s_44.1kHz.wav',None,1000,8,2,34,0,,,,,209.6150964999688,210.6138814999722,210.61323456997633,212.61326069995994,215.5140509000048,5.870040471257989,None,1,,michael,001,2023-10-31_13h13.41.688,Oddball_task,2022.2.5,59.93044472646077,
standard,soundFiles/1000Hz_-3dBFS_3s_44.1kHz.wav',None,1000,8,3,35,2,,,,,215.5140509000048,216.4967900000047,216.49639206998398,218.49686029995792,218.5301767999772,3.0098840159623226,None,1,,michael,001,2023-10-31_13h13.41.688,Oddball_task,2022.2.5,59.93044472646077,
standard,soundFiles/1000Hz_-3dBFS_3s_44.1kHz.wav',None,1000,9,0,36,1,,,,,218.5301767999772,219.53031750000082,219.52934606997877,221.5451158999931,222.8143878999981,4.26780952003806,None,1,,michael,001,2023-10-31_13h13.41.688,Oddball_task,2022.2.5,59.93044472646077,
standard,soundFiles/1000Hz_-3dBFS_3s_44.1kHz.wav',None,1000,9,1,37,2,,,,,222.8143878999981,223.81365249998635,223.81342276996583,225.82910239999183,225.180420699995,2.3619478702671066,None,1,,michael,001,2023-10-31_13h13.41.688,Oddball_task,2022.2.5,59.93044472646077,
target,soundFiles/1200Hz_-3dBFS_3s_44.1kHz.wav',t,2000,9,2,38,3,,,,,225.82910239999183,226.8300780999707,226.8295316699834,228.84566279995488,231.00102939998033,5.131143432208325,None,0,,michael,001,2023-10-31_13h13.41.688,Oddball_task,2022.2.5,59.93044472646077,
standard,soundFiles/1000Hz_-3dBFS_3s_44.1kHz.wav',None,1000,9,3,39,0,,,,,231.00102939998033,231.96260839997558,231.96206566995824,233.9625904999557,234.44421479996527,3.433814103023691,None,1,,michael,001,2023-10-31_13h13.41.688,Oddball_task,2022.2.5,59.93044472646077,
standard,soundFiles/1000Hz_-3dBFS_3s_44.1kHz.wav',None,1000,10,0,40,1,,,,,234.44421479996527,235.4456526999711,235.445041069953,237.44571099994937,236.59554949996527,2.15101525680797,None,1,,michael,001,2023-10-31_13h13.41.688,Oddball_task,2022.2.5,59.93044472646077,
standard,soundFiles/1000Hz_-3dBFS_3s_44.1kHz.wav',None,1000,10,1,41,0,,,,,237.44571099994937,238.44585679995362,238.44604616998112,240.44568339997204,240.87889039999573,3.424800063640563,None,1,,michael,001,2023-10-31_13h13.41.688,Oddball_task,2022.2.5,59.93044472646077,
target,soundFiles/1200Hz_-3dBFS_3s_44.1kHz.wav',t,2000,10,2,42,3,,,,,240.87889039999573,241.87906269996893,241.87829516998607,243.95153679995565,243.11226879997412,2.2275928518915893,None,0,,michael,001,2023-10-31_13h13.41.688,Oddball_task,2022.2.5,59.93044472646077,
standard,soundFiles/1000Hz_-3dBFS_3s_44.1kHz.wav',None,1000,10,3,43,2,,,,,243.95153679995565,244.91166319994954,244.91223346996702,246.91218289994868,247.2117935999995,3.2493424049839392,None,1,,michael,001,2023-10-31_13h13.41.688,Oddball_task,2022.2.5,59.93044472646077,
target,soundFiles/1200Hz_-3dBFS_3s_44.1kHz.wav',t,2000,11,0,44,3,,,,,247.2117935999995,248.21132459997898,248.2113216699974,250.2116088999901,249.22800259996438,2.0036721009304514,None,0,,michael,001,2023-10-31_13h13.41.688,Oddball_task,2022.2.5,59.93044472646077,
standard,soundFiles/1000Hz_-3dBFS_3s_44.1kHz.wav',None,1000,11,1,45,2,,,,,250.2116088999901,251.21136649994878,251.21106546996742,253.2108435999835,252.995446899964,2.769024080422637,None,1,,michael,001,2023-10-31_13h13.41.688,Oddball_task,2022.2.5,59.93044472646077,
standard,soundFiles/1000Hz_-3dBFS_3s_44.1kHz.wav',None,1000,11,2,46,0,,,,,253.2108435999835,254.2117322999984,254.21159116995403,256.2111278999946,256.41089189995546,3.1895179473560695,None,1,,michael,001,2023-10-31_13h13.41.688,Oddball_task,2022.2.5,59.93044472646077,
standard,soundFiles/1000Hz_-3dBFS_3s_44.1kHz.wav',None,1000,11,3,47,1,,,,,256.41089189995546,257.4123328999849,257.4112135700008,259.4127179000061,258.8275542999618,2.4031867736429966,None,1,,michael,001,2023-10-31_13h13.41.688,Oddball_task,2022.2.5,59.93044472646077,
standard,soundFiles/1000Hz_-3dBFS_3s_44.1kHz.wav',None,1000,12,0,48,0,,,,,259.4127179000061,260.41000219999114,260.4098110699735,262.4110247999779,264.96039019996533,5.532702305143546,None,1,,michael,001,2023-10-31_13h13.41.688,Oddball_task,2022.2.5,59.93044472646077,
standard,soundFiles/1000Hz_-3dBFS_3s_44.1kHz.wav',None,1000,12,1,49,1,,,,,264.96039019996533,265.96049079997465,265.96005666996933,267.96114249998936,269.8279249999905,4.860216905826363,None,1,,michael,001,2023-10-31_13h13.41.688,Oddball_task,2022.2.5,59.93044472646077,
standard,soundFiles/1000Hz_-3dBFS_3s_44.1kHz.wav',None,1000,12,2,50,2,,,,,269.8279249999905,270.82746949995635,270.82730006998753,272.82700689998455,272.6435608000029,2.808660705889127,None,1,,michael,001,2023-10-31_13h13.41.688,Oddball_task,2022.2.5,59.93044472646077,
target,soundFiles/1200Hz_-3dBFS_3s_44.1kHz.wav',t,2000,12,3,51,3,,,,,272.82700689998455,273.8266334999935,273.8264817699848,275.84306729998207,277.96321519999765,5.0848474064717415,None,0,,michael,001,2023-10-31_13h13.41.688,Oddball_task,2022.2.5,59.93044472646077,
standard,soundFiles/1000Hz_-3dBFS_3s_44.1kHz.wav',None,1000,13,0,52,0,,,,,277.96321519999765,278.9266319999588,278.9259118699876,280.92753789998824,283.80887819995405,5.841245018137848,None,1,,michael,001,2023-10-31_13h13.41.688,Oddball_task,2022.2.5,59.93044472646077,
target,soundFiles/1200Hz_-3dBFS_3s_44.1kHz.wav',t,2000,13,1,53,3,,,,,283.80887819995405,284.81010279996553,284.8098493699974,286.81017879996216,289.1941968000028,5.374788643835277,None,0,,michael,001,2023-10-31_13h13.41.688,Oddball_task,2022.2.5,59.93044472646077,
standard,soundFiles/1000Hz_-3dBFS_3s_44.1kHz.wav',None,1000,13,2,54,1,,,,,289.1941968000028,290.1935034999624,290.1928830699937,292.19130239996593,294.32549749995815,5.12504671067998,None,1,,michael,001,2023-10-31_13h13.41.688,Oddball_task,2022.2.5,59.93044472646077,
standard,soundFiles/1000Hz_-3dBFS_3s_44.1kHz.wav',None,1000,13,3,55,2,,,,,294.32549749995815,295.32579939998686,295.32562296996474,297.3255007999833,299.1602348999586,4.834272991421905,None,1,,michael,001,2023-10-31_13h13.41.688,Oddball_task,2022.2.5,59.93044472646077,
target,soundFiles/1200Hz_-3dBFS_3s_44.1kHz.wav',t,2000,14,0,56,3,,,,,299.1602348999586,300.15905469999416,300.1582881699607,302.1761470999918,301.2586431999807,2.0984589909822327,None,0,,michael,001,2023-10-31_13h13.41.688,Oddball_task,2022.2.5,59.93044472646077,
standard,soundFiles/1000Hz_-3dBFS_3s_44.1kHz.wav',None,1000,14,1,57,2,,,,,302.1761470999918,303.1600612999755,303.16030407000216,305.1583752000006,305.0752328999806,2.8871744234081156,None,1,,michael,001,2023-10-31_13h13.41.688,Oddball_task,2022.2.5,59.93044472646077,
standard,soundFiles/1000Hz_-3dBFS_3s_44.1kHz.wav',None,1000,14,2,58,1,,,,,305.1583752000006,306.1589896999649,306.15889656999497,308.1736857999931,307.3748393999995,2.213063828689877,None,1,307.15851939999266,michael,001,2023-10-31_13h13.41.688,Oddball_task,2022.2.5,59.93044472646077,
standard,soundFiles/1000Hz_-3dBFS_3s_44.1kHz.wav',None,1000,14,3,59,0,,,,,308.1736857999931,309.15782209997997,309.15802516999537,311.15834530000575,312.42517669999506,4.249579812157956,None,1,,michael,001,2023-10-31_13h13.41.688,Oddball_task,2022.2.5,59.93044472646077,
standard,soundFiles/1000Hz_-3dBFS_3s_44.1kHz.wav',None,1000,15,0,60,0,,,,,312.42517669999506,313.424761799979,313.42460436998516,315.4248249999946,315.4411252999562,3.0020195817847095,None,1,,michael,001,2023-10-31_13h13.41.688,Oddball_task,2022.2.5,59.93044472646077,
target,soundFiles/1200Hz_-3dBFS_3s_44.1kHz.wav',t,2000,15,1,61,3,,,,,315.4411252999562,316.4418375999667,316.44146376995485,318.4606564999558,317.60793040000135,2.1538216840259174,None,0,,michael,001,2023-10-31_13h13.41.688,Oddball_task,2022.2.5,59.93044472646077,
standard,soundFiles/1000Hz_-3dBFS_3s_44.1kHz.wav',None,1000,15,2,62,1,,,,,318.4606564999558,319.4586070999503,319.45840906999655,321.45827429997735,323.6574280000059,5.192382636483809,None,1,,michael,001,2023-10-31_13h13.41.688,Oddball_task,2022.2.5,59.93044472646077,
standard,soundFiles/1000Hz_-3dBFS_3s_44.1kHz.wav',None,1000,15,3,63,2,,,,,323.6574280000059,324.6571590999956,324.65685166996553,326.6578648999566,329.05875450000167,5.386779629556405,None,1,,michael,001,2023-10-31_13h13.41.688,Oddball_task,2022.2.5,59.93044472646077,
standard,soundFiles/1000Hz_-3dBFS_3s_44.1kHz.wav',None,1000,16,0,64,0,,,,,329.05875450000167,330.05760659999214,330.05702416996354,332.05618119996507,332.0410111999954,2.97625284530091,None,1,,michael,001,2023-10-31_13h13.41.688,Oddball_task,2022.2.5,59.93044472646077,
standard,soundFiles/1000Hz_-3dBFS_3s_44.1kHz.wav',None,1000,16,1,65,1,,,,,332.05618119996507,333.0572322999942,333.0568319699552,335.0567890999955,336.7897998999688,4.721810642257707,None,1,,michael,001,2023-10-31_13h13.41.688,Oddball_task,2022.2.5,59.93044472646077,
standard,soundFiles/1000Hz_-3dBFS_3s_44.1kHz.wav',None,1000,16,2,66,2,,,,,336.7897998999688,337.7904914999963,337.79033476994954,339.7910884000012,339.1396309999982,2.334781806894333,None,1,,michael,001,2023-10-31_13h13.41.688,Oddball_task,2022.2.5,59.93044472646077,
target,soundFiles/1200Hz_-3dBFS_3s_44.1kHz.wav',t,2000,16,3,67,3,,,,,339.7910884000012,340.79067339998437,340.7902768699743,342.790612199984,344.67312789999414,4.878454993312571,None,0,,michael,001,2023-10-31_13h13.41.688,Oddball_task,2022.2.5,59.93044472646077,
standard,soundFiles/1000Hz_-3dBFS_3s_44.1kHz.wav',None,1000,17,0,68,1,,,,,344.67312789999414,345.67265520000365,345.67305436999885,347.6731441000011,349.13912189996336,4.454039757264705,None,1,,michael,001,2023-10-31_13h13.41.688,Oddball_task,2022.2.5,59.93044472646077,
standard,soundFiles/1000Hz_-3dBFS_3s_44.1kHz.wav',None,1000,17,1,69,0,,,,,349.13912189996336,350.12397299997974,350.1249665699608,352.1395463999943,353.47271979996003,4.326019431898201,None,1,,michael,001,2023-10-31_13h13.41.688,Oddball_task,2022.2.5,59.93044472646077,
target,soundFiles/1200Hz_-3dBFS_3s_44.1kHz.wav',t,2000,17,2,70,3,,,,,353.47271979996003,354.4739181000041,354.4735371699964,356.49018249998335,357.655583499989,4.169516190252331,None,0,,michael,001,2023-10-31_13h13.41.688,Oddball_task,2022.2.5,59.93044472646077,
standard,soundFiles/1000Hz_-3dBFS_3s_44.1kHz.wav',None,1000,17,3,71,2,,,,,357.655583499989,358.6556890999782,358.6556313699868,360.6560776999686,361.3205507999519,3.655886368187951,None,1,,michael,001,2023-10-31_13h13.41.688,Oddball_task,2022.2.5,59.93044472646077,
standard,soundFiles/1000Hz_-3dBFS_3s_44.1kHz.wav',None,1000,18,0,72,1,,,,,361.3205507999519,362.32344529998954,362.3218841699592,364.33856030000607,367.00622689997545,5.67164276636897,None,1,,michael,001,2023-10-31_13h13.41.688,Oddball_task,2022.2.5,59.93044472646077,
standard,soundFiles/1000Hz_-3dBFS_3s_44.1kHz.wav',None,1000,18,1,73,0,,,,,367.00622689997545,368.0056913999724,368.00488556998897,370.0051372000016,372.47691939998185,5.458867468956694,None,1,,michael,001,2023-10-31_13h13.41.688,Oddball_task,2022.2.5,59.93044472646077,
standard,soundFiles/1000Hz_-3dBFS_3s_44.1kHz.wav',None,1000,18,2,74,2,,,,,372.47691939998185,373.47225589997834,373.4720774699992,375.4713856999879,377.42397030000575,4.938969540936273,None,1,,michael,001,2023-10-31_13h13.41.688,Oddball_task,2022.2.5,59.93044472646077,
target,soundFiles/1200Hz_-3dBFS_3s_44.1kHz.wav',t,2000,18,3,75,3,,,,,377.42397030000575,378.42237679997925,378.42123006996115,380.43844399997033,383.1709588999511,5.733293258513626,None,0,,michael,001,2023-10-31_13h13.41.688,Oddball_task,2022.2.5,59.93044472646077,
standard,soundFiles/1000Hz_-3dBFS_3s_44.1kHz.wav',None,1000,19,0,76,0,,,,,383.1709588999511,384.1709870999912,384.1708328699635,386.17057169997133,386.986726299976,3.8017645984199246,None,1,,michael,001,2023-10-31_13h13.41.688,Oddball_task,2022.2.5,59.93044472646077,
standard,soundFiles/1000Hz_-3dBFS_3s_44.1kHz.wav',None,1000,19,1,77,1,,,,,386.986726299976,387.9902333999635,387.97425166996544,390.00619220000226,389.72121059999336,2.734487042083267,None,1,,michael,001,2023-10-31_13h13.41.688,Oddball_task,2022.2.5,59.93044472646077,
standard,soundFiles/1000Hz_-3dBFS_3s_44.1kHz.wav',None,1000,19,2,78,2,,,,,390.00619220000226,391.00448949995916,391.0043648699822,393.0048091999488,393.78701039997395,3.7790195922597505,None,1,,michael,001,2023-10-31_13h13.41.688,Oddball_task,2022.2.5,59.93044472646077,
target,soundFiles/1200Hz_-3dBFS_3s_44.1kHz.wav',t,2000,19,3,79,3,,,,,393.78701039997395,394.7868599999929,394.78651466996524,396.7877484000055,398.1885479000048,4.384752700679357,None,0,,michael,001,2023-10-31_13h13.41.688,Oddball_task,2022.2.5,59.93044472646077,
target,soundFiles/1200Hz_-3dBFS_3s_44.1kHz.wav',t,2000,20,0,80,3,,,,,398.1885479000048,399.18690119998064,399.18668126997653,401.1877381999511,404.052306699974,5.855585329000435,None,0,,michael,001,2023-10-31_13h13.41.688,Oddball_task,2022.2.5,59.93044472646077,
standard,soundFiles/1000Hz_-3dBFS_3s_44.1kHz.wav',None,1000,20,1,81,1,,,,,404.052306699974,405.0553052999894,405.0540721699537,407.0694148999755,406.35374009999214,2.2687609097228942,None,1,,michael,001,2023-10-31_13h13.41.688,Oddball_task,2022.2.5,59.93044472646077,
standard,soundFiles/1000Hz_-3dBFS_3s_44.1kHz.wav',None,1000,20,2,82,2,,,,,407.0694148999755,408.06968439999036,408.0694684699585,410.0703703999752,411.68632079998497,4.610549804043631,None,1,,michael,001,2023-10-31_13h13.41.688,Oddball_task,2022.2.5,59.93044472646077,
standard,soundFiles/1000Hz_-3dBFS_3s_44.1kHz.wav',None,1000,20,3,83,0,,,,,411.68632079998497,412.70878139999695,412.6913392699964,414.71822669997346,413.8528596999822,2.15121972880818,None,1,,michael,001,2023-10-31_13h13.41.688,Oddball_task,2022.2.5,59.93044472646077,
target,soundFiles/1200Hz_-3dBFS_3s_44.1kHz.wav',t,2000,21,0,84,3,,,,,414.71822669997346,415.7037569999811,415.7036180699535,417.7260895999498,419.10247879999224,4.381113307096568,None,0,,michael,001,2023-10-31_13h13.41.688,Oddball_task,2022.2.5,59.93044472646077,
standard,soundFiles/1000Hz_-3dBFS_3s_44.1kHz.wav',None,1000,21,1,85,1,,,,,419.10247879999224,420.1021644999855,420.1023049699899,422.10397090000333,422.10397090000333,2.9941392649919902,None,1,,michael,001,2023-10-31_13h13.41.688,Oddball_task,2022.2.5,59.93044472646077,
standard,soundFiles/1000Hz_-3dBFS_3s_44.1kHz.wav',None,1000,21,2,86,2,,,,,422.10397090000333,423.10214009997435,423.1024746700015,425.1024652000051,427.9199570000055,5.811557691630959,None,1,,michael,001,2023-10-31_13h13.41.688,Oddball_task,2022.2.5,59.93044472646077,
standard,soundFiles/1000Hz_-3dBFS_3s_44.1kHz.wav',None,1000,21,3,87,0,,,,,427.9199570000055,428.92391359998146,428.9081919699849,430.9360591999721,431.6672853999771,3.7354870464412313,None,1,,michael,001,2023-10-31_13h13.41.688,Oddball_task,2022.2.5,59.93044472646077,
standard,soundFiles/1000Hz_-3dBFS_3s_44.1kHz.wav',None,1000,22,0,88,0,,,,,431.6672853999771,432.66887959995074,432.6684760700038,434.6686495000031,437.485082899977,5.803193026823811,None,1,,michael,001,2023-10-31_13h13.41.688,Oddball_task,2022.2.5,59.93044472646077,
standard,soundFiles/1000Hz_-3dBFS_3s_44.1kHz.wav',None,1000,22,1,89,1,,,,,437.485082899977,438.48468199995114,438.4837257699866,440.48483099997975,439.91781699995045,2.4180807516708063,None,1,,michael,001,2023-10-31_13h13.41.688,Oddball_task,2022.2.5,59.93044472646077,
standard,soundFiles/1000Hz_-3dBFS_3s_44.1kHz.wav',None,1000,22,2,90,2,,,,,440.48483099997975,441.48483489995124,441.48427037000073,443.48484109999845,443.48484109999845,2.9982685961086823,None,1,442.4875417999574,michael,001,2023-10-31_13h13.41.688,Oddball_task,2022.2.5,59.93044472646077,
target,soundFiles/1200Hz_-3dBFS_3s_44.1kHz.wav',t,2000,22,3,91,3,,,,,443.48484109999845,444.4861153999809,444.48482966995215,446.50092659995425,448.37147939996794,4.837472693731872,None,0,,michael,001,2023-10-31_13h13.41.688,Oddball_task,2022.2.5,59.93044472646077,
standard,soundFiles/1000Hz_-3dBFS_3s_44.1kHz.wav',None,1000,23,0,92,0,,,,,448.37147939996794,449.33541419997346,449.334195969993,451.3508418999845,453.3778347999905,4.957393957729016,None,1,,michael,001,2023-10-31_13h13.41.688,Oddball_task,2022.2.5,59.93044472646077,
standard,soundFiles/1000Hz_-3dBFS_3s_44.1kHz.wav',None,1000,23,1,93,2,,,,,453.3778347999905,454.3338164999732,454.3334762699844,456.33369449997554,457.86701379995793,4.477025795175029,None,1,,michael,001,2023-10-31_13h13.41.688,Oddball_task,2022.2.5,59.93044472646077,
target,soundFiles/1200Hz_-3dBFS_3s_44.1kHz.wav',t,2000,23,2,94,3,,,,,457.86701379995793,458.8675188999623,458.86687966996686,460.86695319996215,460.9500349999871,3.0681292498247097,None,0,,michael,001,2023-10-31_13h13.41.688,Oddball_task,2022.2.5,59.93044472646077,
standard,soundFiles/1000Hz_-3dBFS_3s_44.1kHz.wav',None,1000,23,3,95,1,,,,,460.9500349999871,461.9509834999917,461.95056316997506,463.9509862999548,466.23253249999834,5.276604157974482,None,1,462.95084189996123,michael,001,2023-10-31_13h13.41.688,Oddball_task,2022.2.5,59.93044472646077,
standard,soundFiles/1000Hz_-3dBFS_3s_44.1kHz.wav',None,1000,24,0,96,0,,,,,466.23253249999834,467.23364289995516,467.23299036997486,469.2508548999904,470.80015480000293,4.562844465504551,None,1,,michael,001,2023-10-31_13h13.41.688,Oddball_task,2022.2.5,59.93044472646077,
target,soundFiles/1200Hz_-3dBFS_3s_44.1kHz.wav',t,2000,24,1,97,3,,,,,470.80015480000293,471.8009371999651,471.79914096994906,473.81584049999947,476.1157455999637,5.306855878845038,None,0,,michael,001,2023-10-31_13h13.41.688,Oddball_task,2022.2.5,59.93044472646077,
standard,soundFiles/1000Hz_-3dBFS_3s_44.1kHz.wav',None,1000,24,2,98,1,,,,,476.1157455999637,477.1160674999701,477.1155003699998,479.11568749998696,481.43126719997963,5.302456676021107,None,1,,michael,001,2023-10-31_13h13.41.688,Oddball_task,2022.2.5,59.93044472646077,
standard,soundFiles/1000Hz_-3dBFS_3s_44.1kHz.wav',None,1000,24,3,99,2,,,,,481.43126719997963,482.4319528999622,482.4321810699941,484.4332161999773,485.31570159998955,3.8782306431330444,None,1,,michael,001,2023-10-31_13h13.41.688,Oddball_task,2022.2.5,59.93044472646077,
standard,soundFiles/1000Hz_-3dBFS_3s_44.1kHz.wav',None,1000,25,0,100,1,,,,,485.31570159998955,486.33889019995695,486.32115577000076,488.3486898999545,488.0152301999624,2.699469294295078,None,1,,michael,001,2023-10-31_13h13.41.688,Oddball_task,2022.2.5,59.93044472646077,
target,soundFiles/1200Hz_-3dBFS_3s_44.1kHz.wav',t,2000,25,1,101,3,,,,,488.3486898999545,489.3484026999795,489.3481687699852,491.3507282999926,490.7662883999874,2.406897103380193,None,0,,michael,001,2023-10-31_13h13.41.688,Oddball_task,2022.2.5,59.93044472646077,
standard,soundFiles/1000Hz_-3dBFS_3s_44.1kHz.wav',None,1000,25,2,102,2,,,,,491.3507282999926,492.34863669995684,492.34823977000195,494.34980949998135,493.83176799997455,2.4746447363809283,None,1,,michael,001,2023-10-31_13h13.41.688,Oddball_task,2022.2.5,59.93044472646077,
standard,soundFiles/1000Hz_-3dBFS_3s_44.1kHz.wav',None,1000,25,3,103,0,,,,,494.34980949998135,495.34857719996944,495.34824986996244,497.34910779999336,499.58154069999,5.218293824121117,None,1,,michael,001,2023-10-31_13h13.41.688,Oddball_task,2022.2.5,59.93044472646077,
standard,soundFiles/1000Hz_-3dBFS_3s_44.1kHz.wav',None,1000,26,0,104,1,,,,,499.58154069999,500.58131629996933,500.581048769952,502.58166429999983,504.34775779995834,4.7599438221602375,None,1,,michael,001,2023-10-31_13h13.41.688,Oddball_task,2022.2.5,59.93044472646077,
target,soundFiles/1200Hz_-3dBFS_3s_44.1kHz.wav',t,2000,26,1,105,3,,,,,504.34775779995834,505.351070899982,505.3348683699907,507.36440550000407,509.46409299998777,5.1053071173816695,None,0,,michael,001,2023-10-31_13h13.41.688,Oddball_task,2022.2.5,59.93044472646077,
standard,soundFiles/1000Hz_-3dBFS_3s_44.1kHz.wav',None,1000,26,2,106,2,,,,,509.46409299998777,510.46442859998206,510.46359966999734,512.4642342999578,511.834864799981,2.3577385651534986,None,1,,michael,001,2023-10-31_13h13.41.688,Oddball_task,2022.2.5,59.93044472646077,
standard,soundFiles/1000Hz_-3dBFS_3s_44.1kHz.wav',None,1000,26,3,107,0,,,,,512.4642342999578,513.4639084999799,513.4637210699905,515.4657361999853,517.2836512000067,4.807722824863413,None,1,,michael,001,2023-10-31_13h13.41.688,Oddball_task,2022.2.5,59.93044472646077,
standard,soundFiles/1000Hz_-3dBFS_3s_44.1kHz.wav',None,1000,27,0,108,0,,,,,517.2836512000067,518.2834384999587,518.2814442699485,520.2969542999635,521.8472047999967,4.554402145225011,None,1,,michael,001,2023-10-31_13h13.41.688,Oddball_task,2022.2.5,59.93044472646077,
standard,soundFiles/1000Hz_-3dBFS_3s_44.1kHz.wav',None,1000,27,1,109,1,,,,,521.8472047999967,522.8457309999503,522.8455032700033,524.9040194999543,525.8133209999651,3.955742180300735,None,1,,michael,001,2023-10-31_13h13.41.688,Oddball_task,2022.2.5,59.93044472646077,
target,soundFiles/1200Hz_-3dBFS_3s_44.1kHz.wav',t,2000,27,2,110,3,,,,,525.8133209999651,526.8121331000002,526.8123180699943,528.8143914999673,530.9984504999593,5.1684637765138355,None,0,,michael,001,2023-10-31_13h13.41.688,Oddball_task,2022.2.5,59.93044472646077,
standard,soundFiles/1000Hz_-3dBFS_3s_44.1kHz.wav',None,1000,27,3,111,2,,,,,530.9984504999593,531.9977793999715,531.9960034699936,534.0131512999651,536.1796780999866,5.175299138935861,None,1,,michael,001,2023-10-31_13h13.41.688,Oddball_task,2022.2.5,59.93044472646077,
standard,soundFiles/1000Hz_-3dBFS_3s_44.1kHz.wav',None,1000,28,0,112,2,,,,,536.1796780999866,537.1792185999802,537.17858506997,539.1796326999902,540.1811712000053,3.976554397928945,None,1,,michael,001,2023-10-31_13h13.41.688,Oddball_task,2022.2.5,59.93044472646077,
standard,soundFiles/1000Hz_-3dBFS_3s_44.1kHz.wav',None,1000,28,1,113,0,,,,,540.1811712000053,541.1632233999553,541.162986669998,543.1797610999784,545.2463124999776,5.058632815231543,None,1,,michael,001,2023-10-31_13h13.41.688,Oddball_task,2022.2.5,59.93044472646077,
target,soundFiles/1200Hz_-3dBFS_3s_44.1kHz.wav',t,2000,28,2,114,3,,,,,545.2463124999776,546.2459381999797,546.2458681699529,548.24606949999,550.9281011999701,5.678248482367421,None,0,,michael,001,2023-10-31_13h13.41.688,Oddball_task,2022.2.5,59.93044472646077,
standard,soundFiles/1000Hz_-3dBFS_3s_44.1kHz.wav',None,1000,28,3,115,1,,,,,550.9281011999701,551.9307450999622,551.9288793699991,553.9456123999553,556.2840251000016,5.339503861932613,None,1,552.9290337999701,michael,001,2023-10-31_13h13.41.688,Oddball_task,2022.2.5,59.93044472646077,
standard,soundFiles/1000Hz_-3dBFS_3s_44.1kHz.wav',None,1000,29,0,116,0,,,,,556.2840251000016,557.2831823999877,557.2784745699785,559.2956822999986,560.0299568999908,3.7396886509602325,None,1,,michael,001,2023-10-31_13h13.41.688,Oddball_task,2022.2.5,59.93044472646077,
standard,soundFiles/1000Hz_-3dBFS_3s_44.1kHz.wav',None,1000,29,1,117,2,,,,,560.0299568999908,561.031895299966,561.0155692699657,563.0445909999544,565.6797613999806,5.64170961472114,None,1,,michael,001,2023-10-31_13h13.41.688,Oddball_task,2022.2.5,59.93044472646077,
target,soundFiles/1200Hz_-3dBFS_3s_44.1kHz.wav',t,2000,29,2,118,3,,,,,565.6797613999806,566.6788276999723,566.6783823699982,568.6950202999869,570.1101192999631,4.4172510411241355,None,0,,michael,001,2023-10-31_13h13.41.688,Oddball_task,2022.2.5,59.93044472646077,
standard,soundFiles/1000Hz_-3dBFS_3s_44.1kHz.wav',None,1000,29,3,119,1,,,,,570.1101192999631,571.0953335999511,571.0951505699952,573.0949071999639,572.830782199977,2.7048657495252297,None,1,,michael,001,2023-10-31_13h13.41.688,Oddball_task,2022.2.5,59.93044472646077,
target,soundFiles/1200Hz_-3dBFS_3s_44.1kHz.wav',t,2000,30,0,120,3,,,,,573.0949071999639,574.0941375999828,574.0958399699477,576.0943899999838,577.5093685999746,4.408162015387985,None,0,,michael,001,2023-10-31_13h13.41.688,Oddball_task,2022.2.5,59.93044472646077,
standard,soundFiles/1000Hz_-3dBFS_3s_44.1kHz.wav',None,1000,30,1,121,0,,,,,577.5093685999746,578.4966413999791,578.4958506699943,580.5112505999859,581.7960160999792,4.2735269001079965,None,1,,michael,001,2023-10-31_13h13.41.688,Oddball_task,2022.2.5,59.93044472646077,
standard,soundFiles/1000Hz_-3dBFS_3s_44.1kHz.wav',None,1000,30,2,122,1,,,,,581.7960160999792,582.795233999961,582.7940006699821,584.810260600003,584.5272458999534,2.717790557902007,None,1,,michael,001,2023-10-31_13h13.41.688,Oddball_task,2022.2.5,59.93044472646077,
standard,soundFiles/1000Hz_-3dBFS_3s_44.1kHz.wav',None,1000,30,3,123,2,,,,,584.810260600003,585.8097248999984,585.8093501699798,587.8131813999498,588.4279914999497,3.606019539987886,None,1,,michael,001,2023-10-31_13h13.41.688,Oddball_task,2022.2.5,59.93044472646077,
standard,soundFiles/1000Hz_-3dBFS_3s_44.1kHz.wav',None,1000,31,0,124,1,,,,,588.4279914999497,589.4257389999693,589.4252554699954,591.4431986999698,590.8099115999648,2.368254027913385,None,1,590.4256184999831,michael,001,2023-10-31_13h13.41.688,Oddball_task,2022.2.5,59.93044472646077,
target,soundFiles/1200Hz_-3dBFS_3s_44.1kHz.wav',t,2000,31,1,125,3,,,,,591.4431986999698,592.4274476999999,592.4271100699727,594.4434910999844,596.0097602999886,4.551645065126176,None,0,,michael,001,2023-10-31_13h13.41.688,Oddball_task,2022.2.5,59.93044472646077,
standard,soundFiles/1000Hz_-3dBFS_3s_44.1kHz.wav',None,1000,31,2,126,2,,,,,596.0097602999886,597.0095691999886,597.009290270001,599.0488821999752,600.3596098999842,4.349838618388292,None,1,,michael,001,2023-10-31_13h13.41.688,Oddball_task,2022.2.5,59.93044472646077,
standard,soundFiles/1000Hz_-3dBFS_3s_44.1kHz.wav',None,1000,31,3,127,0,,,,,600.3596098999842,601.3594127999968,601.3600964700047,603.3600601999788,605.2259406999801,4.862395446425747,None,1,,michael,001,2023-10-31_13h13.41.688,Oddball_task,2022.2.5,59.93044472646077,
standard,soundFiles/1000Hz_-3dBFS_3s_44.1kHz.wav',None,1000,32,0,128,2,,,,,605.2259406999801,606.2259873999865,606.2257771699981,608.225806100003,610.0151497999905,4.715035635825901,None,1,,michael,001,2023-10-31_13h13.41.688,Oddball_task,2022.2.5,59.93044472646077,
standard,soundFiles/1000Hz_-3dBFS_3s_44.1kHz.wav',None,1000,32,1,129,0,,,,,610.0151497999905,610.9756989000016,610.9753036700015,612.975679199968,615.6254112999886,5.606427639665696,None,1,,michael,001,2023-10-31_13h13.41.688,Oddball_task,2022.2.5,59.93044472646077,
standard,soundFiles/1000Hz_-3dBFS_3s_44.1kHz.wav',None,1000,32,2,130,1,,,,,615.6254112999886,616.6274276999757,616.6264473700023,618.6258331999998,620.6576176999952,5.018208554341142,None,1,,michael,001,2023-10-31_13h13.41.688,Oddball_task,2022.2.5,59.93044472646077,
target,soundFiles/1200Hz_-3dBFS_3s_44.1kHz.wav',t,2000,32,3,131,3,,,,,620.6576176999952,621.6599067999632,621.6590697699751,623.6766959999804,623.7074116999866,3.0484554556459957,None,0,,michael,001,2023-10-31_13h13.41.688,Oddball_task,2022.2.5,59.93044472646077,
standard,soundFiles/1000Hz_-3dBFS_3s_44.1kHz.wav',None,1000,33,0,132,2,,,,,623.7074116999866,624.7315833999892,624.7145472699951,626.7422119999537,627.5762019999675,3.8564672397566877,None,1,,michael,001,2023-10-31_13h13.41.688,Oddball_task,2022.2.5,59.93044472646077,
standard,soundFiles/1000Hz_-3dBFS_3s_44.1kHz.wav',None,1000,33,1,133,1,,,,,627.5762019999675,628.5746690999949,628.5738602699887,630.5755254999967,631.5747681999928,3.9801820403781796,None,1,,michael,001,2023-10-31_13h13.41.688,Oddball_task,2022.2.5,59.93044472646077,
,,,,,,,,,,,,631.5747681999928,632.5580255999812,632.5578884699673,,,,,,,,,,,,,
