trial,file,corrAns,tone,trials.thisRepN,trials.thisTrialN,trials.thisN,trials.thisIndex,trials_2.thisRepN,trials_2.thisTrialN,trials_2.thisN,trials_2.thisIndex,instructions.started,key_resp_1.started,key_resp_1.keys,key_resp_1.rt,fixation.started,response.started,sound_1.started,response.keys,response.corr,feedback_text.started,response.stopped,response.rt,instructions_2.started,key_resp_2.started,key_resp_2.keys,key_resp_2.rt,thank_you.started,exit_exp.started,thank_you.stopped,exit_exp.keys,exit_exp.rt,participant,session,date,expName,psychopyVersion,frameRate,
,,,,,,,,,,,,56.00442909999401,56.00442909999401,space,19.301509099983377,,,,,,,,,,,,,,,,,,elpida_250-440,12_10_23,2023-10-12_11h57.12.972,Oddball_task,2022.2.5,60.03006305037853,
target,soundFiles/440Hz_44100Hz_16bit_05sec.wav',t,1200,0,0,0,3,,,,,,,,,75.3651050000044,76.33305310001015,76.33329540999839,None,0,78.83592209999915,,,,,,,,,,,,elpida_250-440,12_10_23,2023-10-12_11h57.12.972,Oddball_task,2022.2.5,60.03006305037853,
standard,soundFiles/250Hz_44100Hz_16bit_05sec.wav',None,1000,0,1,1,2,,,,,,,,,79.8361506999936,80.82154179998906,80.82047261000261,t,0,83.33895609999308,83.32232480001403,1.6093257000029553,,,,,,,,,,elpida_250-440,12_10_23,2023-10-12_11h57.12.972,Oddball_task,2022.2.5,60.03006305037853,
standard,soundFiles/250Hz_44100Hz_16bit_05sec.wav',None,1000,0,2,2,1,,,,,,,,,84.34010579998721,85.32402800000273,85.32412711000651,None,1,87.8589181000134,87.82622250000713,,,,,,,,,,,elpida_250-440,12_10_23,2023-10-12_11h57.12.972,Oddball_task,2022.2.5,60.03006305037853,
standard,soundFiles/250Hz_44100Hz_16bit_05sec.wav',None,1000,0,3,3,0,,,,,,,,,88.84442000000854,89.82842629999504,89.82848990999045,None,1,92.3470391999872,92.32985219999682,,,,,,,,,,,elpida_250-440,12_10_23,2023-10-12_11h57.12.972,Oddball_task,2022.2.5,60.03006305037853,
,,,,,,,,,,,,,,,,,,,,,,,,93.34775389998686,93.34775389998686,space,4.021142400015378,,,,,,elpida_250-440,12_10_23,2023-10-12_11h57.12.972,Oddball_task,2022.2.5,60.03006305037853,
target,soundFiles/440Hz_44100Hz_16bit_05sec.wav',t,1200,,,,,0,0,0,3,,,,,97.41755559999729,98.40166319999844,98.40183060999843,t,1,,,1.2002117999945767,,,,,,,,,,elpida_250-440,12_10_23,2023-10-12_11h57.12.972,Oddball_task,2022.2.5,60.03006305037853,
target,soundFiles/440Hz_44100Hz_16bit_05sec.wav',t,1200,,,,,0,1,1,3,,,,,100.90383799999836,101.88830419999431,101.88796640998916,t,1,,104.39019889998599,1.5317372000135947,,,,,,,,,,elpida_250-440,12_10_23,2023-10-12_11h57.12.972,Oddball_task,2022.2.5,60.03006305037853,
standard,soundFiles/250Hz_44100Hz_16bit_05sec.wav',None,1000,,,,,0,2,2,2,,,,,104.40675460000057,105.39095050000469,105.39076130999601,None,1,,107.89324780000607,,,,,,,,,,,elpida_250-440,12_10_23,2023-10-12_11h57.12.972,Oddball_task,2022.2.5,60.03006305037853,
standard,soundFiles/250Hz_44100Hz_16bit_05sec.wav',None,1000,,,,,0,3,3,0,,,,,107.91020680000656,108.8947002000059,108.89413970999303,None,1,,111.39599389999057,,,,,,,,,,,elpida_250-440,12_10_23,2023-10-12_11h57.12.972,Oddball_task,2022.2.5,60.03006305037853,
standard,soundFiles/250Hz_44100Hz_16bit_05sec.wav',None,1000,,,,,1,0,4,0,,,,,111.412654499989,112.39670469998964,112.39671290999976,None,1,,114.89980740001192,,,,,,,,,,,elpida_250-440,12_10_23,2023-10-12_11h57.12.972,Oddball_task,2022.2.5,60.03006305037853,
standard,soundFiles/250Hz_44100Hz_16bit_05sec.wav',None,1000,,,,,1,1,5,2,,,,,114.91698270000052,115.90055429999484,115.90038261000299,None,1,,,,,,,,,,,,,elpida_250-440,12_10_23,2023-10-12_11h57.12.972,Oddball_task,2022.2.5,60.03006305037853,
target,soundFiles/440Hz_44100Hz_16bit_05sec.wav',t,1200,,,,,1,2,6,3,,,,,118.4033621000126,119.38956969999708,119.39059771000174,t,1,,121.88963049999438,1.0255492000142112,,,,,,,,,,elpida_250-440,12_10_23,2023-10-12_11h57.12.972,Oddball_task,2022.2.5,60.03006305037853,
standard,soundFiles/250Hz_44100Hz_16bit_05sec.wav',None,1000,,,,,1,3,7,1,,,,,121.90629700000864,122.89006780000636,122.89016241000499,None,1,,125.39247170000453,,,,,,,,,,,elpida_250-440,12_10_23,2023-10-12_11h57.12.972,Oddball_task,2022.2.5,60.03006305037853,
target,soundFiles/440Hz_44100Hz_16bit_05sec.wav',t,1200,,,,,2,0,8,3,,,,,125.40869199999725,126.3933754999889,126.39316500999266,t,1,,128.89455339999404,0.8936440999968909,,,,,,,,,,elpida_250-440,12_10_23,2023-10-12_11h57.12.972,Oddball_task,2022.2.5,60.03006305037853,
standard,soundFiles/250Hz_44100Hz_16bit_05sec.wav',None,1000,,,,,2,1,9,1,,,,,128.91129910000018,129.8948900999967,129.89544680999242,None,1,,132.39662680000765,,,,,,,,,,,elpida_250-440,12_10_23,2023-10-12_11h57.12.972,Oddball_task,2022.2.5,60.03006305037853,
target,soundFiles/440Hz_44100Hz_16bit_05sec.wav',t,1200,,,,,2,2,10,3,,,,,132.41345610001008,133.39782529999502,133.39775980999693,t,1,,135.8999221000122,0.831690700026229,,,,,,,,,,elpida_250-440,12_10_23,2023-10-12_11h57.12.972,Oddball_task,2022.2.5,60.03006305037853,
standard,soundFiles/250Hz_44100Hz_16bit_05sec.wav',None,1000,,,,,2,3,11,1,,,,,135.9164010999957,136.90088860000833,136.90031071000848,None,1,,,,,,,,,,,,,elpida_250-440,12_10_23,2023-10-12_11h57.12.972,Oddball_task,2022.2.5,60.03006305037853,
standard,soundFiles/250Hz_44100Hz_16bit_05sec.wav',None,1000,,,,,3,0,12,2,,,,,139.4027708999929,140.38674600000377,140.38764761000638,None,1,,142.8890829999873,,,,,,,,,,,elpida_250-440,12_10_23,2023-10-12_11h57.12.972,Oddball_task,2022.2.5,60.03006305037853,
standard,soundFiles/250Hz_44100Hz_16bit_05sec.wav',None,1000,,,,,3,1,13,2,,,,,142.90572129999055,143.89001589998952,143.88996771000674,None,1,,146.39256360000581,,,,,,,,,,,elpida_250-440,12_10_23,2023-10-12_11h57.12.972,Oddball_task,2022.2.5,60.03006305037853,
standard,soundFiles/250Hz_44100Hz_16bit_05sec.wav',None,1000,,,,,3,2,14,1,,,,,146.40912180001033,147.39313159999438,147.39296771000372,None,1,,149.8948539000121,,,,,,,,,,,elpida_250-440,12_10_23,2023-10-12_11h57.12.972,Oddball_task,2022.2.5,60.03006305037853,
standard,soundFiles/250Hz_44100Hz_16bit_05sec.wav',None,1000,,,,,3,3,15,0,,,,,149.91137180000078,150.8955597000022,150.89581700998824,None,1,,153.39756400001352,,,,,,,,,,,elpida_250-440,12_10_23,2023-10-12_11h57.12.972,Oddball_task,2022.2.5,60.03006305037853,
standard,soundFiles/250Hz_44100Hz_16bit_05sec.wav',None,1000,,,,,4,0,16,0,,,,,153.414042599994,154.39818560000276,154.39846960998838,None,1,,156.90108469998813,,,,,,,,,,,elpida_250-440,12_10_23,2023-10-12_11h57.12.972,Oddball_task,2022.2.5,60.03006305037853,
standard,soundFiles/250Hz_44100Hz_16bit_05sec.wav',None,1000,,,,,4,1,17,0,,,,,156.91732440001215,157.88489899999695,157.88508520999457,None,1,,160.38691560001462,,,,,,,,,,,elpida_250-440,12_10_23,2023-10-12_11h57.12.972,Oddball_task,2022.2.5,60.03006305037853,
standard,soundFiles/250Hz_44100Hz_16bit_05sec.wav',None,1000,,,,,4,2,18,1,,,,,160.4036832000129,161.3876511999988,161.38783660999033,None,1,,163.89040420000674,,,,,,,,,,,elpida_250-440,12_10_23,2023-10-12_11h57.12.972,Oddball_task,2022.2.5,60.03006305037853,
standard,soundFiles/250Hz_44100Hz_16bit_05sec.wav',None,1000,,,,,4,3,19,2,,,,,163.90675150000607,164.89146469999105,164.89083000999526,None,1,,167.3932749000087,,,,,,,,,,,elpida_250-440,12_10_23,2023-10-12_11h57.12.972,Oddball_task,2022.2.5,60.03006305037853,
,,,,,,,,,,,,,,,,,,,,,,,,,,,,167.41026060000877,170.39535569999134,170.41193659999408,e,10.572652999981074,elpida_250-440,12_10_23,2023-10-12_11h57.12.972,Oddball_task,2022.2.5,60.03006305037853,
