trial,file,corrAns,tone,trials.thisRepN,trials.thisTrialN,trials.thisN,trials.thisIndex,trials_2.thisRepN,trials_2.thisTrialN,trials_2.thisN,trials_2.thisIndex,instructions.started,key_resp_1.started,key_resp_1.keys,key_resp_1.rt,fixation.started,response.started,sound_1.started,response.keys,response.corr,response.rt,feedback_text.started,instructions_2.started,key_resp_2.started,key_resp_2.keys,key_resp_2.rt,thank_you.started,thank_you.stopped,exit_exp.started,exit_exp.keys,exit_exp.rt,participant,session,date,expName,psychopyVersion,frameRate,
,,,,,,,,,,,,21.426737599998887,21.426737599998887,space,17.0613486000002,,,,,,,,,,,,,,,,,levi,001,2023-09-20_15h52.15.970,Oddball_task,2022.2.5,None,
standard,soundFiles/1000Hz_-3dBFS_3s_44.1kHz.wav',s,1000,0,0,0,2,,,,,,,,,38.52338349999991,39.48977500000001,39.49400656666536,s,1,1.4785711000022275,41.004458699999304,,,,,,,,,,levi,001,2023-09-20_15h52.15.970,Oddball_task,2022.2.5,None,
standard,soundFiles/1000Hz_-3dBFS_3s_44.1kHz.wav',s,1000,0,1,1,1,,,,,,,,,42.00779289999991,42.989394999998694,42.99255096666663,s,1,0.6424833000000945,43.656295699998736,,,,,,,,,,levi,001,2023-09-20_15h52.15.970,Oddball_task,2022.2.5,None,
standard,soundFiles/1000Hz_-3dBFS_3s_44.1kHz.wav',s,1000,0,2,2,0,,,,,,,,,44.689092899998286,45.63830719999896,45.642567066665165,s,1,0.9136803000001237,46.5761980999996,,,,,,,,,,levi,001,2023-09-20_15h52.15.970,Oddball_task,2022.2.5,None,
target,soundFiles/1200Hz_-3dBFS_3s_44.1kHz.wav',t,1200,0,3,3,3,,,,,,,,,47.60374039999988,48.57443499999863,48.57447186666492,t,1,0.7299939000004088,49.336773099999846,,,,,,,,,,levi,001,2023-09-20_15h52.15.970,Oddball_task,2022.2.5,None,
,,,,,,,,,,,,,,,,,,,,,,,50.34312069999942,50.34312069999942,space,14.208630999999514,,,,,,levi,001,2023-09-20_15h52.15.970,Oddball_task,2022.2.5,None,
standard,soundFiles/1000Hz_-3dBFS_3s_44.1kHz.wav',s,1000,,,,,0,0,0,0,,,,,64.58815199999844,65.55589239999972,65.55739036666661,s,1,0.6845121999995172,,,,,,,,,,,levi,001,2023-09-20_15h52.15.970,Oddball_task,2022.2.5,None,
standard,soundFiles/1000Hz_-3dBFS_3s_44.1kHz.wav',s,1000,,,,,0,1,1,1,,,,,66.27387069999895,67.25930199999857,67.26089806666666,s,1,0.452960600001461,,,,,,,,,,,levi,001,2023-09-20_15h52.15.970,Oddball_task,2022.2.5,None,
standard,soundFiles/1000Hz_-3dBFS_3s_44.1kHz.wav',s,1000,,,,,0,2,2,1,,,,,67.73801959999946,68.74014049999823,68.73935716666553,s,1,0.585809899999731,,,,,,,,,,,levi,001,2023-09-20_15h52.15.970,Oddball_task,2022.2.5,None,
standard,soundFiles/1000Hz_-3dBFS_3s_44.1kHz.wav',s,1000,,,,,0,3,3,1,,,,,69.35463739999977,70.34180249999918,70.34064346666516,s,1,0.554434500001662,,,,,,,,,,,levi,001,2023-09-20_15h52.15.970,Oddball_task,2022.2.5,None,
standard,soundFiles/1000Hz_-3dBFS_3s_44.1kHz.wav',s,1000,,,,,1,0,4,2,,,,,70.93776609999986,71.92078749999928,71.92227746666528,s,1,0.5358135000005859,,,,,,,,,,,levi,001,2023-09-20_15h52.15.970,Oddball_task,2022.2.5,None,
standard,soundFiles/1000Hz_-3dBFS_3s_44.1kHz.wav',s,1000,,,,,1,1,5,0,,,,,72.47268039999835,73.47196689999873,73.47465366666644,s,1,0.43218980000165175,,,,,,,,,,,levi,001,2023-09-20_15h52.15.970,Oddball_task,2022.2.5,None,
standard,soundFiles/1000Hz_-3dBFS_3s_44.1kHz.wav',s,1000,,,,,1,2,6,1,,,,,73.92373719999887,74.90580879999834,74.90703326666541,s,1,0.37536090000139666,,,,,,,,,,,levi,001,2023-09-20_15h52.15.970,Oddball_task,2022.2.5,None,
target,soundFiles/1200Hz_-3dBFS_3s_44.1kHz.wav',t,1200,,,,,1,3,7,3,,,,,75.30492699999922,76.30721139999878,76.30742006666539,t,1,0.5095187000006263,,,,,,,,,,,levi,001,2023-09-20_15h52.15.970,Oddball_task,2022.2.5,None,
standard,soundFiles/1000Hz_-3dBFS_3s_44.1kHz.wav',s,1000,,,,,2,0,8,2,,,,,76.84028549999857,77.83921429999828,77.8385059666655,s,1,0.6019626000015705,,,,,,,,,,,levi,001,2023-09-20_15h52.15.970,Oddball_task,2022.2.5,None,
standard,soundFiles/1000Hz_-3dBFS_3s_44.1kHz.wav',s,1000,,,,,2,1,9,0,,,,,78.45464099999845,79.45373159999872,79.44351496666629,s,1,0.39611499999955413,,,,,,,,,,,levi,001,2023-09-20_15h52.15.970,Oddball_task,2022.2.5,None,
standard,soundFiles/1000Hz_-3dBFS_3s_44.1kHz.wav',s,1000,,,,,2,2,10,2,,,,,79.88725159999922,80.88912359999995,80.87905956666533,s,1,0.37494560000050114,,,,,,,,,,,levi,001,2023-09-20_15h52.15.970,Oddball_task,2022.2.5,None,
standard,soundFiles/1000Hz_-3dBFS_3s_44.1kHz.wav',s,1000,,,,,2,3,11,1,,,,,81.30707679999978,82.3021962999992,82.29036096666665,s,1,0.37804220000180067,,,,,,,,,,,levi,001,2023-09-20_15h52.15.970,Oddball_task,2022.2.5,None,
standard,soundFiles/1000Hz_-3dBFS_3s_44.1kHz.wav',s,1000,,,,,3,0,12,0,,,,,82.7086535999988,83.72306049999861,83.71788696666614,s,1,0.38135460000194144,,,,,,,,,,,levi,001,2023-09-20_15h52.15.970,Oddball_task,2022.2.5,None,
standard,soundFiles/1000Hz_-3dBFS_3s_44.1kHz.wav',s,1000,,,,,3,1,13,2,,,,,84.13588619999973,85.12245339999936,85.12233006666635,s,1,0.35955720000129077,,,,,,,,,,,levi,001,2023-09-20_15h52.15.970,Oddball_task,2022.2.5,None,
target,soundFiles/1200Hz_-3dBFS_3s_44.1kHz.wav',t,1200,,,,,3,2,14,3,,,,,85.50495549999869,86.52569399999993,86.51709266666536,t,1,0.442477600001439,,,,,,,,,,,levi,001,2023-09-20_15h52.15.970,Oddball_task,2022.2.5,None,
target,soundFiles/1200Hz_-3dBFS_3s_44.1kHz.wav',t,1200,,,,,3,3,15,3,,,,,87.00134679999974,87.98874739999883,87.99264416666507,t,1,0.4999569000010524,,,,,,,,,,,levi,001,2023-09-20_15h52.15.970,Oddball_task,2022.2.5,None,
target,soundFiles/1200Hz_-3dBFS_3s_44.1kHz.wav',t,1200,,,,,4,0,16,3,,,,,88.50592819999838,89.52021869999953,89.51291176666588,t,1,0.42414950000056706,,,,,,,,,,,levi,001,2023-09-20_15h52.15.970,Oddball_task,2022.2.5,None,
standard,soundFiles/1000Hz_-3dBFS_3s_44.1kHz.wav',s,1000,,,,,4,1,17,2,,,,,89.9887222999987,90.97356169999875,90.97193386666574,s,1,0.5389854000004561,,,,,,,,,,,levi,001,2023-09-20_15h52.15.970,Oddball_task,2022.2.5,None,
standard,soundFiles/1000Hz_-3dBFS_3s_44.1kHz.wav',s,1000,,,,,4,2,18,0,,,,,91.53877459999967,92.53570859999854,92.54220016666501,s,1,0.49625360000209184,,,,,,,,,,,levi,001,2023-09-20_15h52.15.970,Oddball_task,2022.2.5,None,
standard,soundFiles/1000Hz_-3dBFS_3s_44.1kHz.wav',s,1000,,,,,4,3,19,1,,,,,93.06730849999985,94.05572299999949,94.05667776666657,s,1,0.4888959000018076,,,,,,,,,,,levi,001,2023-09-20_15h52.15.970,Oddball_task,2022.2.5,None,
standard,soundFiles/1000Hz_-3dBFS_3s_44.1kHz.wav',s,1000,,,,,5,0,20,1,,,,,94.58429999999862,95.56994789999953,95.57198966666535,s,1,0.4380711000012525,,,,,,,,,,,levi,001,2023-09-20_15h52.15.970,Oddball_task,2022.2.5,None,
standard,soundFiles/1000Hz_-3dBFS_3s_44.1kHz.wav',s,1000,,,,,5,1,21,0,,,,,96.03814689999854,97.03753249999863,97.03904166666531,s,1,0.3627144000020053,,,,,,,,,,,levi,001,2023-09-20_15h52.15.970,Oddball_task,2022.2.5,None,
target,soundFiles/1200Hz_-3dBFS_3s_44.1kHz.wav',t,1200,,,,,5,2,22,3,,,,,97.43524839999918,98.42018339999959,98.42244806666555,t,1,0.5328838000023097,,,,,,,,,,,levi,001,2023-09-20_15h52.15.970,Oddball_task,2022.2.5,None,
standard,soundFiles/1000Hz_-3dBFS_3s_44.1kHz.wav',s,1000,,,,,5,3,23,1,,,,,98.96991089999938,99.97212409999884,99.96615726666666,s,1,0.5660331000017322,,,,,,,,,,,levi,001,2023-09-20_15h52.15.970,Oddball_task,2022.2.5,None,
target,soundFiles/1200Hz_-3dBFS_3s_44.1kHz.wav',t,1200,,,,,6,0,24,3,,,,,100.55616939999891,101.5548932999991,101.55552756666499,t,1,0.4535572000022512,,,,,,,,,,,levi,001,2023-09-20_15h52.15.970,Oddball_task,2022.2.5,None,
standard,soundFiles/1000Hz_-3dBFS_3s_44.1kHz.wav',s,1000,,,,,6,1,25,0,,,,,102.03901709999991,103.02151609999964,103.01970406666648,s,1,0.594557900001746,,,,,,,,,,,levi,001,2023-09-20_15h52.15.970,Oddball_task,2022.2.5,None,
standard,soundFiles/1000Hz_-3dBFS_3s_44.1kHz.wav',s,1000,,,,,6,2,26,2,,,,,103.64977119999821,104.63662169999952,104.63720856666647,s,1,0.539515800001027,,,,,,,,,,,levi,001,2023-09-20_15h52.15.970,Oddball_task,2022.2.5,None,
target,soundFiles/1200Hz_-3dBFS_3s_44.1kHz.wav',t,1200,,,,,6,3,27,3,,,,,105.21707489999972,106.21698589999869,106.20708286666583,t,1,0.5758951000007073,,,,,,,,,,,levi,001,2023-09-20_15h52.15.970,Oddball_task,2022.2.5,None,
target,soundFiles/1200Hz_-3dBFS_3s_44.1kHz.wav',t,1200,,,,,7,0,28,3,,,,,106.81956089999949,107.80452359999981,107.80322486666616,t,1,0.4858231000016531,,,,,,,,,,,levi,001,2023-09-20_15h52.15.970,Oddball_task,2022.2.5,None,
target,soundFiles/1200Hz_-3dBFS_3s_44.1kHz.wav',t,1200,,,,,7,1,29,3,,,,,108.3255827999983,109.30496349999885,109.30295976666663,t,1,0.5112817000008363,,,,,,,,,,,levi,001,2023-09-20_15h52.15.970,Oddball_task,2022.2.5,None,
standard,soundFiles/1000Hz_-3dBFS_3s_44.1kHz.wav',s,1000,,,,,7,2,30,0,,,,,109.85463379999965,110.85490969999955,110.85528806666504,s,1,0.5619153000006918,,,,,,,,,,,levi,001,2023-09-20_15h52.15.970,Oddball_task,2022.2.5,None,
standard,soundFiles/1000Hz_-3dBFS_3s_44.1kHz.wav',s,1000,,,,,7,3,31,0,,,,,111.43824419999873,112.41929829999935,112.42213756666594,s,1,0.5172793000001548,,,,,,,,,,,levi,001,2023-09-20_15h52.15.970,Oddball_task,2022.2.5,None,
standard,soundFiles/1000Hz_-3dBFS_3s_44.1kHz.wav',s,1000,,,,,8,0,32,0,,,,,112.96641719999934,113.95498969999971,113.95290436666643,s,1,0.5182979000019259,,,,,,,,,,,levi,001,2023-09-20_15h52.15.970,Oddball_task,2022.2.5,None,
standard,soundFiles/1000Hz_-3dBFS_3s_44.1kHz.wav',s,1000,,,,,8,1,33,2,,,,,114.5190462999999,115.50390249999873,115.50330426666575,s,1,0.4807321000007505,,,,,,,,,,,levi,001,2023-09-20_15h52.15.970,Oddball_task,2022.2.5,None,
standard,soundFiles/1000Hz_-3dBFS_3s_44.1kHz.wav',s,1000,,,,,8,2,34,2,,,,,116.02003929999955,117.02125359999991,117.02132736666523,s,1,0.443664100001115,,,,,,,,,,,levi,001,2023-09-20_15h52.15.970,Oddball_task,2022.2.5,None,
standard,soundFiles/1000Hz_-3dBFS_3s_44.1kHz.wav',s,1000,,,,,8,3,35,2,,,,,117.48706609999863,118.48611939999864,118.4857124666653,s,1,0.44222390000140877,,,,,,,,,,,levi,001,2023-09-20_15h52.15.970,Oddball_task,2022.2.5,None,
standard,soundFiles/1000Hz_-3dBFS_3s_44.1kHz.wav',s,1000,,,,,9,0,36,1,,,,,118.97295599999961,119.97026039999946,119.96864236666649,s,1,0.38259800000196265,,,,,,,,,,,levi,001,2023-09-20_15h52.15.970,Oddball_task,2022.2.5,None,
standard,soundFiles/1000Hz_-3dBFS_3s_44.1kHz.wav',s,1000,,,,,9,1,37,2,,,,,120.3850911999998,121.36861169999975,121.36998286666518,s,1,0.4318747000015719,,,,,,,,,,,levi,001,2023-09-20_15h52.15.970,Oddball_task,2022.2.5,None,
target,soundFiles/1200Hz_-3dBFS_3s_44.1kHz.wav',t,1200,,,,,9,2,38,3,,,,,121.8198042999993,122.80534129999978,122.80479436666634,t,1,0.49902190000102564,,,,,,,,,,,levi,001,2023-09-20_15h52.15.970,Oddball_task,2022.2.5,None,
standard,soundFiles/1000Hz_-3dBFS_3s_44.1kHz.wav',s,1000,,,,,9,3,39,1,,,,,123.34970599999906,124.3394808999983,124.33593696666527,s,1,0.5819089000015083,,,,,,,,,,,levi,001,2023-09-20_15h52.15.970,Oddball_task,2022.2.5,None,
,,,,,,,,,,,,,,,,,,,,,,,,,,,124.94902799999909,127.95611799999824,127.95611799999824,e,22.77445230000194,levi,001,2023-09-20_15h52.15.970,Oddball_task,2022.2.5,None,
