trial,file,corrAns,tone,trials.thisRepN,trials.thisTrialN,trials.thisN,trials.thisIndex,trials_2.thisRepN,trials_2.thisTrialN,trials_2.thisN,trials_2.thisIndex,instructions.started,key_resp_1.started,key_resp_1.keys,key_resp_1.rt,fixation.started,response.started,sound_1.started,response.keys,response.corr,feedback_text.started,response.rt,response.stopped,instructions_2.started,key_resp_2.started,key_resp_2.keys,key_resp_2.rt,fixation.stopped,thank_you.started,exit_exp.started,thank_you.stopped,participant,session,date,expName,psychopyVersion,frameRate,
,,,,,,,,,,,,20.12473320000572,20.12473320000572,space,55.8750401000143,,,,,,,,,,,,,,,,,m,001,2023-09-22_16h46.01.865,Oddball_task,2022.2.5,60.181398773252816,
target,soundFiles/1200Hz_-3dBFS_3s_44.1kHz.wav',t,1200,0,0,0,3,,,,,,,,,76.0364609999815,77.01789399998961,77.01951566001517,None,0,80.02901569998357,,,,,,,,,,,m,001,2023-09-22_16h46.01.865,Oddball_task,2022.2.5,60.181398773252816,
standard,soundFiles/1000Hz_-3dBFS_3s_44.1kHz.wav',s,1000,0,1,1,2,,,,,,,,,81.02884909999557,82.01342650002334,82.01146785996971,None,0,85.02820000000065,,,,,,,,,,,m,001,2023-09-22_16h46.01.865,Oddball_task,2022.2.5,60.181398773252816,
standard,soundFiles/1000Hz_-3dBFS_3s_44.1kHz.wav',s,1000,0,2,2,1,,,,,,,,,86.02496349997818,87.00693219999084,87.00822685997119,s,1,90.03853229997912,0.7649922000127845,,,,,,,,,,m,001,2023-09-22_16h46.01.865,Oddball_task,2022.2.5,60.181398773252816,
standard,soundFiles/1000Hz_-3dBFS_3s_44.1kHz.wav',s,1000,0,3,3,0,,,,,,,,,91.02029469999252,92.00327659997856,92.00131336000632,s,1,95.0351120000123,0.8423497999901883,95.01713669998571,,,,,,,,,m,001,2023-09-22_16h46.01.865,Oddball_task,2022.2.5,60.181398773252816,
,,,,,,,,,,,,,,,,,,,,,,,,96.0333725999808,96.0333725999808,space,1.680511699989438,,,,,m,001,2023-09-22_16h46.01.865,Oddball_task,2022.2.5,60.181398773252816,
standard,soundFiles/1000Hz_-3dBFS_3s_44.1kHz.wav',s,1000,,,,,0,0,0,1,,,,,97.74985189997824,98.72866219998104,98.73083175998764,s,1,,1.4468992999754846,,,,,,,,,,m,001,2023-09-22_16h46.01.865,Oddball_task,2022.2.5,60.181398773252816,
standard,soundFiles/1000Hz_-3dBFS_3s_44.1kHz.wav',s,1000,,,,,0,1,1,2,,,,,101.74366789998021,102.72613670001738,102.72890475998284,s,1,,0.6447139999945648,,,,,,,,,,m,001,2023-09-22_16h46.01.865,Oddball_task,2022.2.5,60.181398773252816,
target,soundFiles/1200Hz_-3dBFS_3s_44.1kHz.wav',t,1200,,,,,0,2,2,3,,,,,105.73902500001714,106.72271770000225,106.72372865997605,t,1,,0.9478066999581642,,,,,,,,,,m,001,2023-09-22_16h46.01.865,Oddball_task,2022.2.5,60.181398773252816,
standard,soundFiles/1000Hz_-3dBFS_3s_44.1kHz.wav',s,1000,,,,,0,3,3,0,,,,,109.7376584999729,110.71796129998984,110.71865066001774,s,1,,0.9376712000230327,113.73534830001881,,,,,,,,,m,001,2023-09-22_16h46.01.865,Oddball_task,2022.2.5,60.181398773252816,
standard,soundFiles/1000Hz_-3dBFS_3s_44.1kHz.wav',s,1000,,,,,1,0,4,0,,,,,113.74941960000433,114.71511879999889,114.7196344600001,s,1,,0.7810900000040419,117.72818149998784,,,,,,,,,m,001,2023-09-22_16h46.01.865,Oddball_task,2022.2.5,60.181398773252816,
standard,soundFiles/1000Hz_-3dBFS_3s_44.1kHz.wav',s,1000,,,,,1,1,5,0,,,,,117.74619510001503,118.72662520001177,118.72906715999707,s,1,,0.6242817000020295,121.72659129998647,,,,,,,,,m,001,2023-09-22_16h46.01.865,Oddball_task,2022.2.5,60.181398773252816,
standard,soundFiles/1000Hz_-3dBFS_3s_44.1kHz.wav',s,1000,,,,,1,2,6,1,,,,,121.74068930000067,122.7265448999824,122.7240278599842,s,1,,0.7663354999967851,,,,,,,,,,m,001,2023-09-22_16h46.01.865,Oddball_task,2022.2.5,60.181398773252816,
target,soundFiles/1200Hz_-3dBFS_3s_44.1kHz.wav',t,1200,,,,,1,3,7,3,,,,,125.74016919999849,126.72008160001133,126.72081615997595,t,1,,0.8144943999941461,129.73379809997277,,,,,,,,,m,001,2023-09-22_16h46.01.865,Oddball_task,2022.2.5,60.181398773252816,
standard,soundFiles/1000Hz_-3dBFS_3s_44.1kHz.wav',s,1000,,,,,2,0,8,0,,,,,129.75095840002177,130.73404740000842,130.7329774599697,s,1,,0.6854856999707408,,,,,,,,,,m,001,2023-09-22_16h46.01.865,Oddball_task,2022.2.5,60.181398773252816,
standard,soundFiles/1000Hz_-3dBFS_3s_44.1kHz.wav',s,1000,,,,,2,1,9,1,,,,,133.74824779998744,134.72966389998328,134.7306336599926,s,1,,0.5839529999648221,,,,,,,,,,m,001,2023-09-22_16h46.01.865,Oddball_task,2022.2.5,60.181398773252816,
target,soundFiles/1200Hz_-3dBFS_3s_44.1kHz.wav',t,1200,,,,,2,2,10,3,,,,,137.74318059999496,138.72684129996924,138.7279643599817,t,1,,0.7813039000029676,,,,,,,,,,m,001,2023-09-22_16h46.01.865,Oddball_task,2022.2.5,60.181398773252816,
target,soundFiles/1200Hz_-3dBFS_3s_44.1kHz.wav',t,1200,,,,,2,3,11,3,,,,,141.74049090000335,142.72318630001973,142.7211254600028,t,1,,0.8174515000428073,,,,,,,,,,m,001,2023-09-22_16h46.01.865,Oddball_task,2022.2.5,60.181398773252816,
standard,soundFiles/1000Hz_-3dBFS_3s_44.1kHz.wav',s,1000,,,,,3,0,12,0,,,,,145.73760250001214,146.71865200001048,146.71735806001234,s,1,,0.6603949999553151,,,,,,,,,,m,001,2023-09-22_16h46.01.865,Oddball_task,2022.2.5,60.181398773252816,
standard,soundFiles/1000Hz_-3dBFS_3s_44.1kHz.wav',s,1000,,,,,3,1,13,1,,,,,149.73180710000452,150.73160619998816,150.73245385999908,s,1,,0.6153226000024006,153.72936180001125,,,,,153.72936180001125,,,,m,001,2023-09-22_16h46.01.865,Oddball_task,2022.2.5,60.181398773252816,
target,soundFiles/1200Hz_-3dBFS_3s_44.1kHz.wav',t,1200,,,,,3,2,14,3,,,,,153.72936180001125,154.72683509998024,154.73537676002016,t,1,,0.7402552999556065,157.72789360000752,,,,,,,,,m,001,2023-09-22_16h46.01.865,Oddball_task,2022.2.5,60.181398773252816,
standard,soundFiles/1000Hz_-3dBFS_3s_44.1kHz.wav',s,1000,,,,,3,3,15,0,,,,,157.74133440002333,158.72521830000915,158.72392945999164,s,1,,1.0487454000394791,,,,,,,,,,m,001,2023-09-22_16h46.01.865,Oddball_task,2022.2.5,60.181398773252816,
target,soundFiles/1200Hz_-3dBFS_3s_44.1kHz.wav',t,1200,,,,,4,0,16,3,,,,,161.73880449996796,162.71937519998755,162.7220431600057,t,1,,0.8290709999855608,165.73483039997518,,,,,,,,,m,001,2023-09-22_16h46.01.865,Oddball_task,2022.2.5,60.181398773252816,
target,soundFiles/1200Hz_-3dBFS_3s_44.1kHz.wav',t,1200,,,,,4,1,17,3,,,,,165.7497713000048,166.71879640000407,166.71799346001936,t,1,,0.8295567000168376,169.73207169998204,,,,,,,,,m,001,2023-09-22_16h46.01.865,Oddball_task,2022.2.5,60.181398773252816,
standard,soundFiles/1000Hz_-3dBFS_3s_44.1kHz.wav',s,1000,,,,,4,2,18,0,,,,,169.74863230000483,170.729990599968,170.73052196001518,s,1,,0.6160652000107802,,,,,,,,,,m,001,2023-09-22_16h46.01.865,Oddball_task,2022.2.5,60.181398773252816,
standard,soundFiles/1000Hz_-3dBFS_3s_44.1kHz.wav',s,1000,,,,,4,3,19,1,,,,,173.74254700000165,174.72741019999376,174.7242154600157,s,1,,0.7418529000133276,,,,,,,,,,m,001,2023-09-22_16h46.01.865,Oddball_task,2022.2.5,60.181398773252816,
standard,soundFiles/1000Hz_-3dBFS_3s_44.1kHz.wav',s,1000,,,,,5,0,20,1,,,,,177.7388559000101,178.72353840002324,178.7210411600012,s,1,,0.6290631000301801,,,,,,,,,,m,001,2023-09-22_16h46.01.865,Oddball_task,2022.2.5,60.181398773252816,
standard,soundFiles/1000Hz_-3dBFS_3s_44.1kHz.wav',s,1000,,,,,5,1,21,2,,,,,181.7372082999791,182.71850969997467,182.72114346002346,s,1,,0.6649472999852151,185.73473650001688,,,,,,,,,m,001,2023-09-22_16h46.01.865,Oddball_task,2022.2.5,60.181398773252816,
target,soundFiles/1200Hz_-3dBFS_3s_44.1kHz.wav',t,1200,,,,,5,2,22,3,,,,,185.75006320001557,186.73371399997268,186.73043165996788,t,1,,0.7871040999889374,,,,,,,,,,m,001,2023-09-22_16h46.01.865,Oddball_task,2022.2.5,60.181398773252816,
target,soundFiles/1200Hz_-3dBFS_3s_44.1kHz.wav',t,1200,,,,,5,3,23,3,,,,,189.74454440001864,190.7271637999802,190.72700955998735,t,1,,0.811963599990122,,,,,,,,,,m,001,2023-09-22_16h46.01.865,Oddball_task,2022.2.5,60.181398773252816,
standard,soundFiles/1000Hz_-3dBFS_3s_44.1kHz.wav',s,1000,,,,,6,0,24,2,,,,,193.74133410002105,194.72224119998282,194.7247005599842,s,1,,0.8210502999718301,,,,,,,,,,m,001,2023-09-22_16h46.01.865,Oddball_task,2022.2.5,60.181398773252816,
standard,soundFiles/1000Hz_-3dBFS_3s_44.1kHz.wav',s,1000,,,,,6,1,25,2,,,,,197.73720089998096,198.71884899999714,198.72002755996655,s,1,,0.6909939000033773,,,,,,,,,,m,001,2023-09-22_16h46.01.865,Oddball_task,2022.2.5,60.181398773252816,
standard,soundFiles/1000Hz_-3dBFS_3s_44.1kHz.wav',s,1000,,,,,6,2,26,0,,,,,201.73813359998167,202.73363199998857,202.73376286001294,s,1,,0.885851199971512,205.72960139997303,,,,,,,,,m,001,2023-09-22_16h46.01.865,Oddball_task,2022.2.5,60.181398773252816,
standard,soundFiles/1000Hz_-3dBFS_3s_44.1kHz.wav',s,1000,,,,,6,3,27,0,,,,,205.74761189997662,206.7287565000006,206.72886246001,s,1,,0.7777390000410378,,,,,,,,,,m,001,2023-09-22_16h46.01.865,Oddball_task,2022.2.5,60.181398773252816,
standard,soundFiles/1000Hz_-3dBFS_3s_44.1kHz.wav',s,1000,,,,,7,0,28,2,,,,,209.74381820001872,210.72542779997457,210.724628160015,s,1,,0.6684930000337772,,,,,,,,,,m,001,2023-09-22_16h46.01.865,Oddball_task,2022.2.5,60.181398773252816,
standard,soundFiles/1000Hz_-3dBFS_3s_44.1kHz.wav',s,1000,,,,,7,1,29,2,,,,,213.7398079999839,214.7204941000091,214.72302845999948,s,1,,0.8347209000494331,217.71928489999846,,,,,,,,,m,001,2023-09-22_16h46.01.865,Oddball_task,2022.2.5,60.181398773252816,
standard,soundFiles/1000Hz_-3dBFS_3s_44.1kHz.wav',s,1000,,,,,7,2,30,0,,,,,217.73578320001252,218.71665469999425,218.71905055997777,s,1,,0.6872744999709539,221.73198709997814,,,,,,,,,m,001,2023-09-22_16h46.01.865,Oddball_task,2022.2.5,60.181398773252816,
target,soundFiles/1200Hz_-3dBFS_3s_44.1kHz.wav',t,1200,,,,,7,3,31,3,,,,,221.74779629998375,222.7333675000118,222.7306093599822,t,1,,0.7812321999808773,,,,,,,,,,m,001,2023-09-22_16h46.01.865,Oddball_task,2022.2.5,60.181398773252816,
standard,soundFiles/1000Hz_-3dBFS_3s_44.1kHz.wav',s,1000,,,,,8,0,32,1,,,,,225.74385999998776,226.72853379999287,226.72798775998527,s,1,,0.807004300004337,,,,,,,,,,m,001,2023-09-22_16h46.01.865,Oddball_task,2022.2.5,60.181398773252816,
standard,soundFiles/1000Hz_-3dBFS_3s_44.1kHz.wav',s,1000,,,,,8,1,33,1,,,,,229.7412508999696,230.72501360002207,230.7251409600198,s,1,,0.8185842999955639,,,,,,,,,,m,001,2023-09-22_16h46.01.865,Oddball_task,2022.2.5,60.181398773252816,
standard,soundFiles/1000Hz_-3dBFS_3s_44.1kHz.wav',s,1000,,,,,8,2,34,1,,,,,233.73783689999254,234.7199052000069,234.7200015600014,s,1,,0.7599433999857865,237.7343265999807,,,,,,,,,m,001,2023-09-22_16h46.01.865,Oddball_task,2022.2.5,60.181398773252816,
standard,soundFiles/1000Hz_-3dBFS_3s_44.1kHz.wav',s,1000,,,,,8,3,35,2,,,,,237.75004620000254,238.71521070000017,238.7210569600051,s,1,,0.7543058999581262,241.7296961999964,,,,,,,,,m,001,2023-09-22_16h46.01.865,Oddball_task,2022.2.5,60.181398773252816,
standard,soundFiles/1000Hz_-3dBFS_3s_44.1kHz.wav',s,1000,,,,,9,0,36,2,,,,,241.74658269999782,242.72897759999614,242.73044656002313,s,1,,0.7185113999876194,,,,,,,,,,m,001,2023-09-22_16h46.01.865,Oddball_task,2022.2.5,60.181398773252816,
standard,soundFiles/1000Hz_-3dBFS_3s_44.1kHz.wav',s,1000,,,,,9,1,37,2,,,,,245.74201819999143,246.72600580001017,246.72412346001366,s,1,,0.6327295000082813,,,,,,,,,,m,001,2023-09-22_16h46.01.865,Oddball_task,2022.2.5,60.181398773252816,
standard,soundFiles/1000Hz_-3dBFS_3s_44.1kHz.wav',s,1000,,,,,9,2,38,2,,,,,249.73988800001098,250.72226629999932,250.72337155999267,s,1,,0.6692778999567963,,,,,,,,,,m,001,2023-09-22_16h46.01.865,Oddball_task,2022.2.5,60.181398773252816,
standard,soundFiles/1000Hz_-3dBFS_3s_44.1kHz.wav',s,1000,,,,,9,3,39,1,,,,,253.7363901999779,254.71659600001294,254.72350486001815,s,1,,0.9148339000530541,257.7325535999844,,,,,,,,,m,001,2023-09-22_16h46.01.865,Oddball_task,2022.2.5,60.181398773252816,
,,,,,,,,,,,,,,,,,,,,,,,,,,,,,257.74933079996845,260.72799699997995,260.7688171999762,,,,,,,
